Folder: semiconductor_data/inn/haddad_2002/365C

Note: inn/haddad_2002/365C/summary.md
## Raman

#### Curve 1 (Disordered Peak)
**Type**: Skewed Gaussian\
**amplitude:** 0.5\
**center** 493.7\
**σ** 28.4
**σ2** 44.7


#### Curve 2 (Ordered Peak)
**Type**:Skewed Gaussian\
**amplitude** 1.2\
**center** 586.8\
**σ** 31.0\
**σ2** 10.4


## S<sup>2</sup>
**Disordered Curve Integrated Area:** 45.799473\
**Ordered Curve Integrated Area:** 61.051688\
**S<sup>2</sup>:** 0.5714


## Band gap
1.9 eV


Raman spectrum from Fig. 1 and band gap from Fig. 3 of [1]


[1]D. B. Haddad, J. S. Thakur, V. M. Naik, G. W. Auner, R. Naik, and L. E. Wenger, MRS Proceedings 743, L11.22 (2002).
https://doi.org/10.1557/PROC-743-L11.22

Note: README.md
# semiconductor_data
Data repository for semiconductor data

File: raman_peaks.csv
399.622, 0.701529
401.122, 0.683748
402.738, 0.676636
403.776, 0.690522
405.853, 0.700118
407.93, 0.683748
410.007, 0.680361
411.998, 0.698989
413.815, 0.687558
415.027, 0.666814
416.671, 0.686288
417.623, 0.704069
418.661, 0.721849
419.977, 0.702037
420.738, 0.665685
421.431, 0.670201
421.95, 0.698989
423.161, 0.711971
424.459, 0.689675
425.931, 0.686006
426.969, 0.709149
427.731, 0.728454
429.738, 0.736808
431.815, 0.73963
433.892, 0.742452
435.883, 0.740477
438.046, 0.748097
440.054, 0.764353
441.508, 0.789161
442.893, 0.809905
444.277, 0.830649
444.97, 0.854216
445.316, 0.866634
446.7, 0.888083
448.777, 0.897115
450.162, 0.920258
451.2, 0.940296
451.893, 0.913625
452.354, 0.90163
453.693, 0.886954
455.701, 0.902195
457.777, 0.908968
459.785, 0.921499
461.672, 0.925056
463.749, 0.933523
465.047, 0.958077
467.055, 0.972301
468.335, 0.996178
468.941, 1.01735
469.893, 1.03823
471.278, 1.06053
472.662, 1.08423
474.047, 1.11006
475.259, 1.13419
475.778, 1.15451
476.886, 1.17449
478.616, 1.16569
479.586, 1.17949
480.278, 1.18668
481.04, 1.22089
482.009, 1.21434
484.086, 1.21716
485.47, 1.20926
486.509, 1.19515
487.201, 1.21886
488.932, 1.23805
491.009, 1.24539
493.086, 1.25442
494.748, 1.24866
496.548, 1.26232
498.625, 1.24934
500.702, 1.25611
502.779, 1.24821
503.817, 1.23071
505.548, 1.22507
507.625, 1.23241
509.702, 1.24369
511.779, 1.25498
513.786, 1.2595
515.24, 1.28321
516.971, 1.27686
518.425, 1.25137
519.74, 1.26627
521.125, 1.29421
522.51, 1.31834
523.894, 1.34713
525.348, 1.34451
527.01, 1.35997
528.671, 1.34756
529.433, 1.32498
530.01, 1.33175
530.471, 1.36675
531.51, 1.3992
532.029, 1.40852
532.548, 1.38763
533.241, 1.36054
534.002, 1.37126
534.972, 1.40005
535.664, 1.42037
537.308, 1.43392
538, 1.4119
538.502, 1.39971
539.126, 1.41529
539.887, 1.43832
541.895, 1.44027
542.587, 1.46398
543.003, 1.48032
543.349, 1.51418
545.356, 1.51577
547.087, 1.52663
547.78, 1.55415
548.472, 1.57786
549.857, 1.59592
551.587, 1.61596
552.972, 1.63628
554.357, 1.66507
555.049, 1.69131
556.78, 1.71615
557.645, 1.73619
558.337, 1.75989
559.03, 1.7853
559.895, 1.809
561.28, 1.83271
562.665, 1.8598
563.876, 1.88267
564.395, 1.90299
565.693, 1.91315
567.511, 1.91992
567.926, 1.93347
568.722, 1.96733
569.934, 1.97072
572.011, 1.96564
573.742, 1.98808
575.126, 2.00967
576.511, 2.03112
577.896, 2.05426
578.674, 2.03465
579.349, 2.04896
579.973, 2.0537
581.79, 2.07232
583.78, 2.08757
585.857, 2.08248
587.242, 2.07402
587.934, 2.052
588.973, 2.02787
590.011, 2.00346
590.271, 1.9758
591.136, 1.95506
591.915, 1.94955
592.434, 1.93685
592.954, 1.91145
593.473, 1.88718
593.733, 1.86234
594.396, 1.83977
594.771, 1.8107
595.031, 1.77937
595.204, 1.76864
595.55, 1.74776
595.723, 1.71671
595.896, 1.70712
596.242, 1.64728
596.415, 1.66253
596.588, 1.65124
596.935, 1.62922
597.108, 1.60834
597.454, 1.58463
597.858, 1.55979
598.233, 1.53044
598.492, 1.52028
598.925, 1.48303
599.185, 1.47287
599.358, 1.44239
599.935, 1.41078
600.396, 1.38594
600.742, 1.36392
601.262, 1.34078
601.608, 1.31707
601.954, 1.27982
602.127, 1.27389
602.473, 1.25555
602.704, 1.24144
603.281, 1.19967
604.204, 1.17765
605.473, 1.15338
605.935, 1.12798
606.281, 1.10597
606.887, 1.08
607.579, 1.05291
608.358, 1.03541
610.204, 1.01904
611.127, 1.00098
612.512, 0.982913
614.243, 0.967814
615.195, 0.943683
616.32, 0.946787
618.397, 0.951303
620.474, 0.950174
621.512, 0.93324
622.897, 0.913202
624.974, 0.908404
627.051, 0.89655
629.128, 0.892035
631.205, 0.900502
633.368, 0.911932
634.666, 0.898808
636.397, 0.886954
638.128, 0.886954
638.82, 0.862118
640.551, 0.863247
642.628, 0.882721
643.493, 0.900502
644.013, 0.924209
645.743, 0.928442
647.128, 0.903042
648.859, 0.888648
650.659, 0.874423
651.628, 0.879334
653.013, 0.895421
655.09, 0.894857
656.474, 0.88131
657.513, 0.868327
658.205, 0.878487
658.897, 0.902195
659.676, 0.919975
660.628, 0.914049
660.974, 0.887378
663.051, 0.899373
665.128, 0.892599
667.205, 0.887519
669.005, 0.897115
671.013, 0.888083
672.813, 0.905243
674.475, 0.902759
676.206, 0.893728
677.244, 0.89147
678.006, 0.90084
678.802, 0.890341