Folder: semiconductor_data/inn/haddad_2002/425C

Note: inn/haddad_2002/425C/summary.md
## Raman

#### Curve 1 (Disordered Peak)
**Type**: Skewed Loretenzian\
**amplitude:** 1.0\
**center** 490.8\
**σ** 21.7
**σ2** 25.6


#### Curve 2 (Ordered Peak)
**Type**:Skewed Loretenzian\
**amplitude** 2.0\
**center** 593.0\
**σ** 46.5\
**σ2** 17.2


## S<sup>2</sup>
**Disordered Curve Integrated Area:** 37.740399\
**Ordered Curve Integrated Area:** 99.071779\
**S<sup>2</sup>:** 0.7241




## Band gap
1.45 eV


Raman spectrum from Fig. 1 and band gap from Fig. 3 of [1]


[1]D. B. Haddad, J. S. Thakur, V. M. Naik, G. W. Auner, R. Naik, and L. E. Wenger, MRS Proceedings 743, L11.22 (2002).
https://doi.org/10.1557/PROC-743-L11.22

Note: README.md
# semiconductor_data
Data repository for semiconductor data

File: raman_peaks.csv
313.54, 0.52339
315.27, 0.58604
316.66, 0.62394
318.74, 0.57154
322.91, 0.59764
324.99, 0.58682
328.81, 0.55123
332.28, 0.58372
333.67, 0.53267
335.40, 0.61041
338.88, 0.61563
340.26, 0.55742
342.35, 0.57444
343.73, 0.60693
346.51, 0.64348
350.07, 0.59532
353.38, 0.64731
355.19, 0.67036
357.36, 0.63709
359.01, 0.65334
361.87, 0.62375
363.94, 0.67654
367.34, 0.68467
369.42, 0.68428
371.27, 0.68737
373.24, 0.71986
376.62, 0.68931
379.58, 0.64522
380.36, 0.67422
383.31, 0.68757
384.35, 0.62549
386.15, 0.64963
387.12, 0.63942
388.17, 0.70749
388.86, 0.71367
389.55, 0.64870
390.48, 0.66417
390.60, 0.69511
392.85, 0.66726
395.11, 0.62510
396.15, 0.66262
400.66, 0.67964
403.72, 0.65798
407.26, 0.68235
411.08, 0.69163
411.77, 0.64870
412.46, 0.65334
413.68, 0.70903
415.33, 0.72934
415.59, 0.71522
417.93, 0.66262
420.10, 0.69666
420.45, 0.72296
424.09, 0.71135
425.74, 0.68293
427.74, 0.67886
429.82, 0.71367
431.90, 0.76473
434.33, 0.77749
435.37, 0.83434
438.85, 0.88540
440.06, 0.91904
442.32, 0.97822
443.78, 0.96522
444.28, 0.97976
445.86, 1.0887
448.63, 1.1133
450.65, 1.0676
452.80, 1.0553
453.25, 1.0153
454.81, 0.97706
455.68, 0.95501
456.20, 0.90551
457.07, 0.89004
460.02, 0.93722
463.49, 0.93819
466.62, 0.94921
469.32, 0.92299
471.13, 0.93181
472.00, 0.99678
473.21, 1.0765
474.95, 1.1575
476.07, 1.2010
477.03, 1.1770
479.81, 1.2219
480.33, 1.2428
481.26, 1.3801
480.85, 1.3263
484.06, 1.3518
485.43, 1.4330
485.53, 1.4609
485.88, 1.5537
485.88, 1.4980
487.44, 1.6380
488.72, 1.6759
489.35, 1.7254
490.05, 1.8461
490.57, 1.8794
492.30, 1.9343
493.58, 1.8631
494.21, 1.7951
494.91, 1.7254
495.25, 1.6697
495.60, 1.6141
496.47, 1.5537
497.86, 1.4810
498.38, 1.4284
499.13, 1.3619
499.24, 1.3031
502.02, 1.2691
503.15, 1.2085
504.10, 1.1964
506.53, 1.2091
508.10, 1.1372
511.05, 1.0942
513.13, 1.0594
514.52, 0.99910
517.30, 1.0401
519.03, 1.0679
521.46, 1.0478
523.72, 1.0896
525.28, 1.0370
527.71, 1.0473
529.10, 1.0745
530.49, 1.0502
534.39, 1.0995
535.35, 1.0888
536.04, 1.0540
536.73, 1.0618
537.25, 1.1267
537.78, 1.1639
538.64, 1.1128
539.51, 1.0532
540.97, 1.0576
542.03, 1.1105
543.24, 1.1209
546.04, 1.0808
548.28, 1.0861
549.92, 1.1824
550.62, 1.2451
552.35, 1.2722
555.25, 1.2706
557.39, 1.2404
558.60, 1.3124
559.64, 1.4075
561.03, 1.4458
564.59, 1.4887
565.72, 1.5375
566.59, 1.5978
570.34, 1.6131
571.79, 1.6875
573.88, 1.7517
574.92, 1.8376
575.44, 1.8693
578.21, 1.8995
578.56, 1.9366
578.91, 2.0318
579.50, 2.1144
579.60, 2.1617
579.78, 2.1896
580.30, 2.2197
582.38, 2.3241
583.25, 2.4257
584.03, 2.4425
585.40, 2.5567
585.16, 2.4982
586.09, 2.7121
586.03, 2.6521
586.46, 2.5672
586.72, 2.7001
586.72, 2.6444
587.50, 2.5643
587.41, 2.4881
588.52, 2.6138
588.11, 2.5284
588.80, 2.6490
589.38, 2.6227
589.67, 2.5864
590.19, 2.5222
591.93, 2.5338
592.62, 2.5794
594.01, 2.5941
594.36, 2.6490
594.88, 2.5284
595.40, 2.4734
595.92, 2.4146
596.44, 2.3520
597.05, 2.2766
597.74, 2.2035
598.35, 2.1385
599.04, 2.0735
599.39, 2.0085
599.74, 1.9598
599.74, 1.9041
600.08, 1.8461
600.43, 1.7881
600.95, 1.7254
601.65, 1.6674
602.34, 1.6079
602.95, 1.5444
603.64, 1.4795
604.08, 1.4296
604.60, 1.3681
605.29, 1.3147
606.04, 1.2505
606.68, 1.1847
607.37, 1.1291
608.07, 1.0687
608.76, 1.0084
610.67, 0.97590
612.75, 0.93799
613.53, 0.87785
616.57, 0.84362
618.65, 0.79721
622.56, 0.77633
624.56, 0.72450
626.99, 0.72296
629.07, 0.74036
631.50, 0.68583
634.27, 0.63942
636.44, 0.66610
640.18, 0.67345
641.91, 0.70594
644.23, 0.67036
644.69, 0.60615
646.42, 0.64638
648.51, 0.68931
650.24, 0.66088
653.37, 0.61698
655.19, 0.66668
657.53, 0.63071
660.74, 0.60809
663.16, 0.68211
664.94, 0.70516
666.56, 0.70749
668.29, 0.68892
670.12, 0.68699
672.11, 0.71677
673.59, 0.69511
674.54, 0.69356
675.41, 0.71135
676.28, 0.64684
678.01, 0.68273
681.14, 0.67732
683.74, 0.69743
684.95, 0.71986
686.00, 0.65953
687.04, 0.63013