Folder: semiconductor_data/inn/kurimoto_2004/500C/raman

Note: inn/kurimoto_2004/500C/raman/summary.md
## Raman

#### Curve 1 (Disordered Peak)
**Type**: Skewed Loretenzian\
**amplitude:** 1.0\
**center** 417.5\
**σ** 5.0
**σ2** 5.0


#### Curve 2 (Ordered Peak)
**Type**:Skewed Gaussian\
**amplitude** 0.0\
**center** 494.7\
**σ** 5.0\
**σ2** 5.0


## S<sup>2</sup>
**Disordered Curve Integrated Area:** 7.828283\
**Ordered Curve Integrated Area:** 0.225597\
**S<sup>2</sup>:** 0.0280


## Band gap
3.491 eV


Raman spectrum from Fig. 1 and band gap from Fig. 2 of [1]

[1]E. Kurimoto, M. Hangyo, H. Harima, M. Yoshimoto, T. Yamaguchi, T. Araki, Y. Nanishi, and K. Kisoda, Applied Physics Letters 84, 212 (2004).
https://doi.org/10.1063/1.1639511

Note: README.md
# semiconductor_data
Data repository for semiconductor data

File: curve_1_fit.dat
392.948,0.0102214
393.448,0.0106453
393.948,0.0110961
394.448,0.011576
394.948,0.0120876
395.448,0.0126337
395.948,0.0132175
396.448,0.0138426
396.948,0.0145128
397.448,0.0152326
397.948,0.0160071
398.448,0.0168418
398.948,0.0177431
399.448,0.0187182
399.948,0.0197755
400.448,0.0209242
400.948,0.0221753
401.448,0.023541
401.948,0.0250357
402.448,0.0266761
402.948,0.0284814
403.448,0.0304744
403.948,0.0326816
404.448,0.0351344
404.948,0.0378703
405.448,0.0409337
405.948,0.0443782
406.448,0.0482686
406.948,0.0526836
407.448,0.0577198
407.948,0.0634965
408.448,0.070162
408.948,0.0779025
409.448,0.0869536
409.948,0.0976161
410.448,0.110277
410.948,0.125441
411.448,0.143767
411.948,0.166126
412.448,0.193673
412.948,0.227937
413.448,0.270929
413.948,0.325221
414.448,0.393908
414.948,0.480194
415.448,0.586056
415.948,0.709145
416.448,0.837537
416.948,0.945353
417.448,0.998368
417.948,0.975169
418.448,0.885511
418.948,0.761545
419.448,0.634136
419.948,0.520623
420.448,0.426511
420.948,0.35107
421.448,0.291353
421.948,0.244135
422.448,0.206615
422.948,0.176562
423.448,0.152263
423.948,0.132426
424.448,0.116073
424.948,0.102469
425.448,0.0910507
425.948,0.0813887
426.448,0.07315
426.948,0.0660747
427.448,0.0599585
427.948,0.0546387
428.448,0.0499854
428.948,0.0458933
429.448,0.042277
429.948,0.0390666
430.448,0.0362041
430.948,0.0336417
431.448,0.0313393
431.948,0.0292632
432.448,0.0273849
432.948,0.0256803
433.448,0.0241289
433.948,0.0227128
434.448,0.021417
434.948,0.0202283
435.448,0.0191353
435.948,0.018128
436.448,0.0171978
436.948,0.0163369
437.448,0.0155389
437.948,0.0147976
438.448,0.0141079
438.948,0.0134651
439.448,0.012865
439.948,0.0123041
440.448,0.0117789
440.948,0.0112865
441.448,0.0108242
441.948,0.0103897
442.448,0.00998073
442.948,0.00959537
443.448,0.00923184
443.948,0.00888853
444.448,0.00856396
444.948,0.00825681
445.448,0.00796584
445.948,0.00768995
446.448,0.00742811
446.948,0.00717939
447.448,0.00694293
447.948,0.00671794
448.448,0.00650368
448.948,0.0062995
449.448,0.00610476
449.948,0.00591889
450.448,0.00574137
450.948,0.00557171
451.448,0.00540944
451.948,0.00525415
452.448,0.00510544
452.948,0.00496294
453.448,0.00482632
453.948,0.00469525
454.448,0.00456945
454.948,0.00444862
455.448,0.00433252
455.948,0.0042209
456.448,0.00411353
456.948,0.0040102
457.448,0.00391071
457.948,0.00381488
458.448,0.00372252
458.948,0.00363346
459.448,0.00354757
459.948,0.00346468
460.448,0.00338466
460.948,0.00330737
461.448,0.0032327
461.948,0.00316053
462.448,0.00309075
462.948,0.00302325
463.448,0.00295793
463.948,0.00289471
464.448,0.00283349
464.948,0.00277419
465.448,0.00271673
465.948,0.00266104
466.448,0.00260704
466.948,0.00255467
467.448,0.00250385
467.948,0.00245454
468.448,0.00240667
468.948,0.00236018
469.448,0.00231503
469.948,0.00227116
470.448,0.00222852
470.948,0.00218708
471.448,0.00214677
471.948,0.00210758
472.448,0.00206944
472.948,0.00203233
473.448,0.00199621
473.948,0.00196104
474.448,0.00192679
474.948,0.00189343
475.448,0.00186093
475.948,0.00182926
476.448,0.00179839
476.948,0.00176829
477.448,0.00173895
477.948,0.00171032
478.448,0.0016824
478.948,0.00165516
479.448,0.00162857
479.948,0.00160261
480.448,0.00157728
480.948,0.00155254
481.448,0.00152837
481.948,0.00150477
482.448,0.0014817
482.948,0.00145917
483.448,0.00143714
483.948,0.00141561
484.448,0.00139455
484.948,0.00137397
485.448,0.00135384
485.948,0.00133414
486.448,0.00131487
486.948,0.00129602
487.448,0.00127757
487.948,0.00125951
488.448,0.00124183
488.948,0.00122452
489.448,0.00120756
489.948,0.00119096
490.448,0.0011747
490.948,0.00115877
491.448,0.00114316
491.948,0.00112786
492.448,0.00111287
492.948,0.00109818
493.448,0.00108377
493.948,0.00106965
494.448,0.0010558
494.948,0.00104221
495.448,0.00102889
495.948,0.00101582
496.448,0.001003
496.948,0.000990422
497.448,0.000978077
497.948,0.000965961
498.448,0.000954069
498.948,0.000942395
499.448,0.000930934
499.948,0.000919681
500.448,0.000908631
500.948,0.000897778
501.448,0.000887119
501.948,0.000876648
502.448,0.000866362
502.948,0.000856255
503.448,0.000846324
503.948,0.000836565
504.448,0.000826974
504.948,0.000817547
505.448,0.00080828
505.948,0.000799169
506.448,0.000790212
506.948,0.000781404
507.448,0.000772743
507.948,0.000764225
508.448,0.000755847
508.948,0.000747606
509.448,0.000739499
509.948,0.000731524
510.448,0.000723676
510.948,0.000715954
511.448,0.000708355
511.948,0.000700876
512.448,0.000693515
512.948,0.00068627
513.448,0.000679137
513.948,0.000672115
514.448,0.000665201
514.948,0.000658394
515.448,0.00065169
515.948,0.000645088
516.448,0.000638586
516.948,0.000632182
517.048,0.000630912

File: curve_2_fit.dat
392.948,2.00804e-92
393.448,1.5294e-91
393.948,1.15327e-90
394.448,8.60982e-90
394.948,6.36378e-89
395.448,4.65687e-88
395.948,3.37388e-87
396.448,2.42003e-86
396.948,1.71859e-85
397.448,1.20831e-84
397.948,8.41088e-84
398.448,5.79645e-83
398.948,3.95494e-82
399.448,2.67162e-81
399.948,1.78676e-80
400.448,1.18308e-79
400.948,7.75571e-79
401.448,5.03367e-78
401.948,3.23448e-77
402.448,2.0577e-76
402.948,1.29603e-75
403.448,8.08179e-75
403.948,4.98949e-74
404.448,3.04973e-73
404.948,1.84554e-72
405.448,1.10572e-71
405.948,6.55873e-71
406.448,3.85171e-70
406.948,2.23946e-69
407.448,1.28912e-68
407.948,7.34677e-68
408.448,4.14532e-67
408.948,2.31567e-66
409.448,1.28072e-65
409.948,7.01272e-65
410.448,3.80169e-64
410.948,2.04044e-63
411.448,1.08425e-62
411.948,5.70412e-62
412.448,2.97103e-61
412.948,1.53208e-60
413.448,7.82195e-60
413.948,3.95371e-59
414.448,1.97857e-58
414.948,9.8029e-58
415.448,4.80856e-57
415.948,2.33525e-56
416.448,1.12281e-55
416.948,5.34489e-55
417.448,2.519e-54
417.948,1.17537e-53
418.448,5.42971e-53
418.948,2.48334e-52
419.448,1.12449e-51
419.948,5.04113e-51
420.448,2.23748e-50
420.948,9.83212e-50
421.448,4.27753e-49
421.948,1.84245e-48
422.448,7.85696e-48
422.948,3.31719e-47
423.448,1.38658e-46
423.948,5.73819e-46
424.448,2.35105e-45
424.948,9.5369e-45
425.448,3.83009e-44
425.948,1.52289e-43
426.448,5.99492e-43
426.948,2.33645e-42
427.448,9.01542e-42
427.948,3.44408e-41
428.448,1.30262e-40
428.948,4.87774e-40
429.448,1.80832e-39
429.948,6.6373e-39
430.448,2.41193e-38
430.948,8.67747e-38
431.448,3.09086e-37
431.948,1.08999e-36
432.448,3.8056e-36
432.948,1.31547e-35
433.448,4.5019e-35
433.948,1.52534e-34
434.448,5.11677e-34
434.948,1.69935e-33
435.448,5.58759e-33
435.948,1.81897e-32
436.448,5.86248e-32
436.948,1.87066e-31
437.448,5.90971e-31
437.948,1.84839e-30
438.448,5.72374e-30
438.948,1.75478e-29
439.448,5.32625e-29
439.948,1.60058e-28
440.448,4.76202e-28
440.948,1.40269e-27
441.448,4.09062e-27
441.948,1.18106e-26
442.448,3.3761e-26
442.948,9.55462e-26
443.448,2.67713e-25
443.948,7.42646e-25
444.448,2.03963e-24
444.948,5.54598e-24
445.448,1.49301e-23
445.948,3.97927e-23
446.448,1.05003e-22
446.948,2.74319e-22
447.448,7.09527e-22
447.948,1.81693e-21
448.448,4.60643e-21
448.948,1.15624e-20
449.448,2.87335e-20
449.948,7.06945e-20
450.448,1.72203e-19
450.948,4.1529e-19
451.448,9.91562e-19
451.948,2.34393e-18
452.448,5.48565e-18
452.948,1.27107e-17
453.448,2.91585e-17
453.948,6.62245e-17
454.448,1.48912e-16
454.948,3.31511e-16
455.448,7.30672e-16
455.948,1.59443e-15
456.448,3.44464e-15
456.948,7.36784e-15
457.448,1.56025e-14
457.948,3.27117e-14
458.448,6.79002e-14
458.948,1.39539e-13
459.448,2.83907e-13
459.948,5.71894e-13
460.448,1.14054e-12
460.948,2.25197e-12
461.448,4.40223e-12
461.948,8.52001e-12
462.448,1.63254e-11
462.948,3.09702e-11
463.448,5.81678e-11
463.948,1.08163e-10
464.448,1.99127e-10
464.948,3.62943e-10
465.448,6.54945e-10
465.948,1.17011e-09
466.448,2.0697e-09
466.948,3.62448e-09
467.448,6.28405e-09
467.948,1.07868e-08
468.448,1.83316e-08
468.948,3.08436e-08
469.448,5.13792e-08
469.948,8.47359e-08
470.448,1.38358e-07
470.948,2.23665e-07
471.448,3.57971e-07
471.948,5.67226e-07
472.448,8.89859e-07
472.948,1.38211e-06
473.448,2.12531e-06
473.948,3.23563e-06
474.448,4.87698e-06
474.948,7.27782e-06
475.448,1.07525e-05
475.948,1.5728e-05
476.448,2.27769e-05
476.948,3.26567e-05
477.448,4.63562e-05
477.948,6.51479e-05
478.448,9.06463e-05
478.948,0.00012487
479.448,0.000170302
479.948,0.000229954
480.448,0.000307411
480.948,0.000406868
481.448,0.000533146
481.948,0.000691663
482.448,0.000888384
482.948,0.0011297
483.448,0.00142228
483.948,0.00177281
484.448,0.00218774
484.948,0.00267292
485.448,0.00323322
485.948,0.00387204
486.448,0.00459095
486.948,0.00538918
487.448,0.00626324
487.948,0.00720663
488.448,0.00820962
488.948,0.00925914
489.448,0.0103389
489.948,0.0114298
490.448,0.01251
490.948,0.013556
491.448,0.0145434
491.948,0.0154474
492.448,0.0162444
492.948,0.0169125
493.448,0.0174328
493.948,0.0177904
494.448,0.0179747
494.948,0.0179802
495.448,0.0178067
495.948,0.0174594
496.448,0.0169486
496.948,0.016289
497.448,0.0154993
497.948,0.0146011
498.448,0.0136181
498.948,0.012575
499.448,0.0114962
499.948,0.0104053
500.448,0.00932429
500.948,0.00827242
501.448,0.00726619
501.948,0.00631885
502.448,0.00544034
502.948,0.00463737
503.448,0.00391358
503.948,0.00326989
504.448,0.00270489
504.948,0.00221525
505.448,0.0017962
505.948,0.00144192
506.448,0.001146
506.948,0.000901753
507.448,0.0007025
507.948,0.000541829
508.448,0.000413747
508.948,0.000312799
509.448,0.000234127
509.948,0.000173499
510.448,0.000127291
510.948,9.24603e-05
511.448,6.64922e-05
511.948,4.73416e-05
512.448,3.33712e-05
512.948,2.32894e-05
513.448,1.60917e-05
513.948,1.10078e-05
514.448,7.45521e-06
514.948,4.9989e-06
515.448,3.31853e-06
515.948,2.1811e-06
516.448,1.41926e-06
516.948,9.14331e-07
517.048,8.36355e-07

File: curve_total_fit.dat
392.948,0.0633494
393.448,0.0638494
393.948,0.0643775
394.448,0.064936
394.948,0.0655276
395.448,0.0661551
395.948,0.0668216
396.448,0.0675308
396.948,0.0682865
397.448,0.0690931
397.948,0.0699558
398.448,0.0708801
398.948,0.0718724
399.448,0.0729399
399.948,0.0740909
400.448,0.0753349
400.948,0.0766824
401.448,0.0781461
401.948,0.0797402
402.448,0.0814813
402.948,0.0833888
403.448,0.0854853
403.948,0.0877974
404.448,0.0903565
404.948,0.0932
405.448,0.0963725
405.948,0.0999274
406.448,0.103929
406.948,0.108458
407.448,0.113608
407.948,0.119501
408.448,0.126283
408.948,0.134142
409.448,0.143313
409.948,0.154097
410.448,0.16688
410.948,0.182167
411.448,0.200618
411.948,0.223103
412.448,0.250777
412.948,0.285169
413.448,0.328291
413.948,0.382713
414.448,0.451532
414.948,0.537951
415.448,0.643947
415.948,0.767171
416.448,0.895699
416.948,1.00365
417.448,1.05681
417.948,1.03375
418.448,0.944228
418.948,0.820403
419.448,0.693135
419.948,0.579765
420.448,0.485796
420.948,0.410499
421.448,0.350927
421.948,0.303855
422.448,0.266481
422.948,0.236575
423.448,0.212424
423.948,0.192734
424.448,0.176531
424.948,0.163075
425.448,0.151807
425.948,0.142295
426.448,0.134206
426.948,0.127282
427.448,0.121316
427.948,0.116148
428.448,0.111646
428.948,0.107705
429.448,0.10424
429.948,0.101181
430.448,0.0984705
430.948,0.0960597
431.448,0.0939088
431.948,0.091984
432.448,0.0902569
432.948,0.0887033
433.448,0.0873025
433.948,0.0860367
434.448,0.0848908
434.948,0.0838516
435.448,0.0829075
435.948,0.0820487
436.448,0.0812662
436.948,0.0805526
437.448,0.079901
437.948,0.0793054
438.448,0.0787606
438.948,0.0782618
439.448,0.0778049
439.948,0.0773861
440.448,0.077002
440.948,0.0766497
441.448,0.0763263
441.948,0.0760295
442.448,0.075757
442.948,0.0755068
443.448,0.0752771
443.948,0.0750662
444.448,0.0748726
444.948,0.074695
445.448,0.0745319
445.948,0.0743823
446.448,0.0742451
446.948,0.0741193
447.448,0.0740039
447.948,0.0738983
448.448,0.0738015
448.948,0.0737128
449.448,0.0736316
449.948,0.0735573
450.448,0.0734893
450.948,0.073427
451.448,0.07337
451.948,0.0733177
452.448,0.0732697
452.948,0.0732257
453.448,0.0731852
453.948,0.0731479
454.448,0.0731135
454.948,0.0730816
455.448,0.0730518
455.948,0.0730241
456.448,0.072998
456.948,0.0729733
457.448,0.0729498
457.948,0.0729273
458.448,0.0729056
458.948,0.0728844
459.448,0.0728636
459.948,0.072843
460.448,0.0728224
460.948,0.0728017
461.448,0.0727808
461.948,0.0727594
462.448,0.0727374
462.948,0.0727148
463.448,0.0726914
463.948,0.0726671
464.448,0.0726418
464.948,0.0726153
465.448,0.0725876
465.948,0.0725587
466.448,0.0725283
466.948,0.0724965
467.448,0.0724632
467.948,0.0724282
468.448,0.0723916
468.948,0.0723533
469.448,0.0723132
469.948,0.0722712
470.448,0.0722274
470.948,0.0721817
471.448,0.072134
471.948,0.0720844
472.448,0.0720329
472.948,0.0719795
473.448,0.0719242
473.948,0.0718671
474.448,0.0718084
474.948,0.0717483
475.448,0.071687
475.948,0.0716251
476.448,0.071563
476.948,0.0715015
477.448,0.0714416
477.948,0.0713845
478.448,0.0713319
478.948,0.0712858
479.448,0.0712487
479.948,0.0712235
480.448,0.071214
480.948,0.0712242
481.448,0.071259
481.948,0.0713238
482.448,0.0714247
482.948,0.071568
483.448,0.0717605
483.948,0.0720087
484.448,0.0723193
484.948,0.072698
485.448,0.0731498
485.948,0.0736781
486.448,0.0742845
486.948,0.0749682
487.448,0.0757258
487.948,0.0765509
488.448,0.0774336
488.948,0.0783611
489.448,0.079317
489.948,0.0802822
490.448,0.081235
490.948,0.0821519
491.448,0.0830086
491.948,0.0837802
492.448,0.0844433
492.948,0.0849759
493.448,0.0853593
493.948,0.0855785
494.448,0.085623
494.948,0.0854873
495.448,0.0851714
495.948,0.0846804
496.448,0.0840246
496.948,0.0832189
497.448,0.0822819
497.948,0.0812354
498.448,0.0801031
498.948,0.0789096
499.448,0.0776795
499.948,0.0764365
500.448,0.0752025
500.948,0.0739969
501.448,0.0728361
501.948,0.0717336
502.448,0.0706993
502.948,0.0697399
503.448,0.0688591
503.948,0.068058
504.448,0.0673351
504.948,0.0666872
505.448,0.0661095
505.948,0.0655963
506.448,0.0651412
506.948,0.0647375
507.448,0.0643788
507.948,0.0640584
508.448,0.0637707
508.948,0.06351
509.448,0.0632717
509.948,0.0630514
510.448,0.0628458
510.948,0.0626516
511.448,0.0624666
511.948,0.0622886
512.448,0.0621161
512.948,0.0619478
513.448,0.0617827
513.948,0.0616203
514.448,0.0614598
514.948,0.0613009
515.448,0.0611433
515.948,0.0609869
516.448,0.0608314
516.948,0.0606768
517.048,0.060646

File: raman_peaks.csv
384.415, 0.083658
392.948, 0.081233
401.541, 0.0817007
406.761, 0.102389
411.408, 0.140468
411.703, 0.174447
413.541, 0.234608
416.731, 0.995653
422.296, 0.226525
422.945, 0.187241
424.508, 0.154065
425.985, 0.122197
433.082, 0.126245
437.649, 0.0978066
447.05, 0.101789
455.337, 0.0815632
462.116, 0.0750717
471.486, 0.0695981
479.832, 0.0639192
487.662, 0.0691277
495.514, 0.0806937
502.757, 0.0642875
509.211, 0.0490756
517.134, 0.0466403