Folder: semiconductor_data/ingan/meher_2011/in18

Note: ingan/meher_2011/in18/summary.md
## Raman

#### Curve 1 (Disordered Peak)
**Type**: Skewed Gaussian\
**amplitude:** 0.6\
**center** 550.0\
**σ** 58.0
**σ2** 40.0


#### Curve 2 (Ordered Peak)
**Type**:Skewed Gaussian\
**amplitude** 0.3\
**center** 629.0\
**σ** 39.9\
**σ2** 50.0


## S<sup>2</sup>
**Disordered Curve Integrated Area:** 75.867086\
**Ordered Curve Integrated Area:** 32.681993\
**S<sup>2</sup>:** 0.3011

## Band gap
2.7919 eV


Raman spectrum from Fig. 5a and band gap from Fig. 4b of [1]


[1]S. R. Meher, K. P. Biju, and M. K. Jain, Physica Status Solidi (a) 208, 2655 (2011).
https://doi.org/10.1002/pssa.201026727

Note: README.md
# semiconductor_data
Data repository for semiconductor data

File: raman_peaks.csv
391.525, 4.05479
401.695, 4.06164
413.559, 4.08219
423.729, 4.09589
432.186, 4.13754
446.565, 4.18112
453.305, 4.20706
460.045, 4.23469
466.336, 4.26556
471.728, 4.2925
476.67, 4.32349
481.613, 4.35242
486.556, 4.38014
490.6, 4.4081
495.543, 4.44053
500.486, 4.47438
505.279, 4.50495
509.922, 4.53158
516.063, 4.56351
522.204, 4.60013
528.554, 4.62818
535.534, 4.65358
549.913, 4.69319
556.584, 4.70367
564.292, 4.71135
571.831, 4.70913
578.671, 4.69796
585.86, 4.69137
592.84, 4.68435
599.55, 4.67673
606.53, 4.67412
613.72, 4.67412
620.909, 4.68025
628.099, 4.69274
635.288, 4.71248
642.478, 4.74029
646.971, 4.7404
650.052, 4.77205
656.338, 4.79683
661.868, 4.8277
665.394, 4.82211
668.749, 4.84778
675.729, 4.86085
682.4, 4.85396
687.797, 4.82471
689.209, 4.84572
691.366, 4.79052
693.253, 4.76022
693.553, 4.81909
697.747, 4.7743
697.896, 4.72678
699.095, 4.74948
699.095, 4.69047
701.431, 4.66468
704.037, 4.70045
704.936, 4.6605
705.565, 4.63145
707.432, 4.59917
709.23, 4.5685
711.027, 4.53804
713.623, 4.50636
715.271, 4.46984
716.956, 4.44033
718.916, 4.40831
721.023, 4.3756
725.107, 4.33164
726.841, 4.29825
728.751, 4.26919
732.714, 4.23593
735.083, 4.20357
738.936, 4.17083
739.086, 4.20655
742.681, 4.17386
744.718, 4.139
751.428, 4.11115
758.058, 4.10042
761.373, 4.08924
768.293, 4.08511
775.483, 4.07944
784.02, 4.07217
800, 4.04795