Folder: semiconductor_data/ingan/meher_2011/in36

Note: ingan/meher_2011/in36/summary.md
## Raman

#### Curve 1 (Disordered Peak)
**Type**: Skewed Gaussian\
**amplitude:** 0.6\
**center** 537.1\
**σ** 57.6
**σ2** 70.0


#### Curve 2 (Ordered Peak)
**Type**:Skewed Gaussian\
**amplitude** 0.7\
**center** 669.9\
**σ** 55.0\
**σ2** 33.1


## S<sup>2</sup>
**Disordered Curve Integrated Area:** 102.473016\
**Ordered Curve Integrated Area:** 80.379668\
**S<sup>2</sup>:** 0.4396


## Band gap
2.6487 eV


Raman spectrum from Fig. 5a and band gap from Fig. 4b of [1]


[1]S. R. Meher, K. P. Biju, and M. K. Jain, Physica Status Solidi (a) 208, 2655 (2011).
https://doi.org/10.1002/pssa.201026727

Note: README.md
# semiconductor_data
Data repository for semiconductor data

File: raman_peaks.csv
394.89, 3.00067
411.864, 3.03425
421.701, 3.08395
438.983, 3.12329
449.261, 3.18446
459.146, 3.23468
470.449, 3.3098
482.769, 3.38488
492.697, 3.45615
501.834, 3.53254
512.468, 3.57857
523.851, 3.63172
538.23, 3.6618
552.609, 3.68079
566.988, 3.69242
581.367, 3.70637
596.142, 3.73401
611.024, 3.75154
625.645, 3.78625
638.683, 3.82844
653.262, 3.85863
662.556, 3.83206
672.544, 3.79824
678.59, 3.73132
687.77, 3.6765
695.307, 3.60442
700.301, 3.52288
704.948, 3.42271
709.942, 3.34428
718.929, 3.25142
723.729, 3.17123
738.983, 3.08904
744.068, 3.05479
755.932, 3.00685
758.04, 2.98713
770.989, 2.98449
786.087, 2.99124
794.804, 2.97904