Folder: semiconductor_data/ingan/meher_2011/in50

Note: ingan/meher_2011/in50/summary.md
## Raman

#### Curve 1 (Disordered Peak)
**Type**: Skewed Gaussian\
**amplitude:** 0.6\
**center** 546.4\
**σ** 65.4
**σ2** 55.6


#### Curve 2 (Ordered Peak)
**Type**:Skewed Gaussian\
**amplitude** 0.7\
**center** 659.9\
**σ** 54.3\
**σ2** 42.7


## S<sup>2</sup>
**Disordered Curve Integrated Area:** 97.161320\
**Ordered Curve Integrated Area:** 82.182622\
**S<sup>2</sup>:** 0.4582


## Band gap
2.5694 eV


Raman spectrum from Fig. 5a and band gap from Fig. 4b of [1]


[1]S. R. Meher, K. P. Biju, and M. K. Jain, Physica Status Solidi (a) 208, 2655 (2011).
https://doi.org/10.1002/pssa.201026727

Note: README.md
# semiconductor_data
Data repository for semiconductor data

File: raman_peaks.csv
400.282, 2.06997
411.01, 2.08792
420.752, 2.11481
429.939, 2.14615
439.824, 2.18726
449.305, 2.23092
457.798, 2.2749
465.886, 2.3203
473.816, 2.36903
481.322, 2.41517
489.252, 2.46113
497.34, 2.50854
505.147, 2.55232
512, 2.59306
520.212, 2.63304
529.693, 2.67159
539.174, 2.71075
548.625, 2.73923
559.349, 2.76461
569.235, 2.77914
579.12, 2.78475
589.006, 2.78475
598.891, 2.78475
608.777, 2.7897
618.662, 2.79465
628.548, 2.80258
638.433, 2.80786
648.319, 2.80324
658.085, 2.78209
665.194, 2.74712
672.91, 2.72169
676.178, 2.68405
682.152, 2.64343
686.804, 2.59227
692.355, 2.54405
696.968, 2.49349
702.285, 2.44255
708.531, 2.38748
712.471, 2.34113
716.9, 2.29765
722.17, 2.25335
729.4, 2.20348
736.39, 2.16062
743.38, 2.11602
751.728, 2.08602
757.15, 2.06168
766.047, 2.05016
775.932, 2.03596
785.818, 2.02936
795.703, 2.02391
802.893, 2.01665