Folder: semiconductor_data/si/tsu_1992/film_a

Note: si/tsu_1992/film_a/summary.md
## Raman

#### Curve 1 (Disordered Peak)
**Type**: Skewed Loretenzian\
**amplitude:** 19.8\
**center** 516.2\
**σ** 2.7
**σ2** 7.0


#### Curve 2 (Ordered Peak)
**Type**:Gaussian\
**amplitude** 0.0\
**center** 509.5\
**σ** 5.6\


## S<sup>2</sup>
**Disordered Curve Integrated Area:** 150.869156\
**Ordered Curve Integrated Area:** 0.139695\
**S<sup>2</sup>:** 0.0009






## Band gap
1.658 eV

Raman obtained from Fig. 2 and band gap from Fig. 1 of [1]

[1]R. Tsu, H. Shen, and M. Dutta, Applied Physics Letters 60, 112 (1992).
https://doi.org/10.1063/1.107364

Note: README.md
# semiconductor_data
Data repository for semiconductor data

File: raman_peaks.csv
507.349, 1.59455
507.99, 1.66665
508.624, 1.77588
509.263, 1.85919
509.9, 1.98449
510.521, 2.15149
511.141, 2.36278
511.749, 2.65186
512.334, 3.08786
512.824, 3.57319
513.22, 4.09218
513.525, 4.62421
513.748, 5.11024
513.971, 5.60103
514.153, 6.1668
514.28, 6.69795
514.384, 7.19494
514.611, 7.96871
514.689, 8.42115
514.743, 9.14737
514.848, 9.8305
514.947, 10.3928
515.025, 11.0227
515.078, 12.9781
515.097, 11.6843
515.111, 12.2258
515.347, 14.8472
515.407, 15.5488
515.447, 16.114
515.55, 16.6796
515.584, 17.1763
515.661, 17.7517
515.916, 18.7165
515.99, 19.4107
516.242, 19.6321
516.586, 19.4925
517.107, 18.8686
517.315, 18.268
517.515, 17.7901
517.764, 17.1795
517.962, 16.6482
518.173, 16.052
518.411, 15.2945
518.559, 14.7001
518.739, 14.0878
519.415, 12.1373
519.528, 11.3827
519.947, 10.3597
520.161, 9.72347
520.377, 8.9934
520.627, 8.24385
520.923, 7.55181
521.245, 6.82528
521.506, 6.27001
521.797, 5.70868
522.119, 5.13733
522.473, 4.55279
522.872, 4.05729
524.391, 2.8074
525.099, 2.42702
525.794, 2.13172
526.477, 1.91881
527.149, 1.77447
527.838, 1.63097