Folder: semiconductor_data/si/tsu_1992/film_c

Note: si/tsu_1992/film_c/summary.md
## Raman

#### Curve 1 (Disordered Peak)
**Type**: Skewed Loretenzian\
**amplitude:** 16.6\
**center** 515.0\
**σ** 1.0
**σ2** 7.6


#### Curve 2 (Ordered Peak)
**Type**:Gaussian\
**amplitude** 2.5\
**center** 508.9\
**σ** 3.0\


## S<sup>2</sup>
**Disordered Curve Integrated Area:** 111.872392\
**Ordered Curve Integrated Area:** 18.587150\
**S<sup>2</sup>:** 0.1425





## Band gap
1.86 eV

Raman obtained from Fig. 2 and band gap from Fig. 1 of [1]

[1]R. Tsu, H. Shen, and M. Dutta, Applied Physics Letters 60, 112 (1992).
https://doi.org/10.1063/1.107364

Note: README.md
# semiconductor_data
Data repository for semiconductor data

File: raman_peaks.csv
499.182, 2.3847
499.809, 2.54631
500.439, 2.69062
501.065, 2.85222
501.708, 2.91011
502.336, 3.06091
502.942, 3.36728
503.547, 3.67508
504.139, 4.06859
504.696, 4.30086
505.218, 4.77037
505.777, 5.19498
506.377, 5.62299
506.85, 5.99602
507.421, 6.25983
508.037, 6.49821
508.806, 6.656
509.455, 6.6483
510.131, 6.34646
510.777, 6.38174
511.454, 6.20571
512.102, 6.22759
512.728, 6.39106
513.179, 6.73878
513.508, 7.31247
513.792, 7.78936
514.052, 8.29504
514.128, 8.90438
514.28, 9.46909
514.352, 9.97829
514.369, 10.4632
514.461, 11.0329
514.551, 11.6184
514.584, 14.2944
514.59, 15.7017
514.592, 16.4202
514.596, 12.2659
514.604, 14.9535
514.607, 18.9023
514.622, 13.5959
514.628, 12.9232
514.63, 17.0178
514.654, 17.9113
514.696, 19.4799
514.803, 20.1663
515.012, 20.6218
515.766, 19.6538
516.099, 18.7158
516.517, 17.5408
516.631, 17.1154
516.776, 16.6015
516.943, 15.9476
517.125, 15.3927
517.318, 14.7597
517.572, 13.9085
517.908, 12.951
518.11, 12.2297
518.318, 11.631
518.569, 10.9412
518.74, 10.3942
519.153, 9.18357
519.369, 8.5588
520.114, 7.06931
520.402, 6.52778
520.703, 5.89714
521.024, 5.33767
521.471, 4.71831
521.909, 4.16431
522.429, 3.65425
524.425, 2.58019
525.118, 2.2968
525.804, 2.0666
526.484, 1.86774
527.164, 1.6768
527.832, 1.55969
528.539, 1.43916
529.2, 1.46869
529.744, 1.46749
530.183, 1.19619
530.672, 1.17122