Folder: semiconductor_data/si/prokes_1994/annealed

Note: si/prokes_1994/annealed/summary.md
## Raman

#### Curve 1 (Disordered Peak)
**Type**: Skewed Loretenzian\
**amplitude:** 490.7\
**center** 519.2\
**σ** 8.4
**σ2** 8.6


#### Curve 2 (Ordered Peak)
**Type**:Gaussian\
**amplitude** 10.0\
**center** 496.5\
**σ** 13.3\


## S<sup>2</sup>
**Disordered Curve Integrated Area:** 6519.175234\
**Ordered Curve Integrated Area:** 332.259583\
**S<sup>2</sup>:** 0.0485

## Band gap
1.72 eV


Raman spectrum from Fig. 1b and band gap from Fig. 1a


[1]S. M. Prokes and O. J. Glembocki, Phys. Rev. B 49, 2238 (1994).
https://doi.org/10.1103/PhysRevB.49.2238

Note: README.md
# semiconductor_data
Data repository for semiconductor data

File: raman_peaks.csv
461.328, 22.9378
463.388, 21.9367
464.966, 21.9484
466.401, 21.9591
467.942, 22.7696
469.441, 24.0694
470.954, 24.5026
472.466, 25.1306
473.979, 24.9795
475.492, 25.1206
477.005, 26.5925
478.518, 28.0319
480.031, 28.8546
481.543, 29.5799
483.056, 30.143
484.569, 31.3552
486.082, 33.2814
487.595, 34.591
489.108, 36.0953
490.622, 37.7295
492.135, 39.8829
493.648, 42.5557
495.162, 45.1311
496.675, 46.8627
498.188, 48.9187
499.702, 51.8707
501.215, 55.88
502.73, 61.4162
504.175, 66.4904
505.641, 73.1982
507.05, 81.2876
508.181, 90.9387
509.08, 100.118
509.773, 107.115
510.548, 115.967
511.414, 128.506
511.486, 137.148
512.179, 156.344
512.213, 146.828
512.595, 165.763
512.839, 180.764
513.415, 193.091
513.672, 201.519
514.054, 212.892
514.195, 224.373
514.335, 232.507
514.476, 242.584
514.707, 250.44
514.886, 264.306
515.105, 276.096
515.245, 284.333
515.489, 293.95
515.594, 300.253
515.666, 309.298
515.825, 326.496
515.875, 317.928
516.018, 335.424
516.157, 341.375
516.229, 351.981
516.302, 362.56
516.498, 374.415
516.583, 383.508
516.724, 394.558
516.934, 404.338
517.084, 414.438
517.284, 426.238
517.315, 435.816
517.499, 453.718
517.566, 445.758
517.744, 467.092
517.92, 477.586
518.385, 492.618
518.924, 510.347
519.352, 502.9
519.352, 502.9
519.81, 487.571
519.92, 497.545
520.326, 477.959
520.595, 457.563
520.867, 449.71
520.909, 437.809
521.234, 413.742
521.285, 426.923
521.403, 405.728
521.503, 395.882
521.672, 386.402
521.692, 377.12
521.942, 369.029
522.155, 360.819
522.21, 347.163
522.378, 336.542
522.505, 325.1
522.681, 317.622
522.748, 309.529
522.952, 302.628
523.2, 292.116
523.22, 280.256
523.285, 270.944
523.557, 261.128
523.692, 251.132
523.963, 240.512
524.172, 228.618
524.415, 218.618
524.641, 209.366
524.912, 198.568
525.094, 180.391
525.184, 188.871
525.728, 169.106
525.945, 160.066
525.968, 144.461
526.273, 153.414
526.42, 133.568
526.951, 124.038
527.794, 107.755
528.594, 102.018
528.73, 95.1664
529.551, 85.1516
530.672, 76.0764
531.334, 68.78
532.651, 65.7428
533.279, 59.6069
534.714, 53.7824
535.906, 48.411
537.354, 44.4171
538.888, 39.9716
540.399, 36.1529
541.888, 32.7343
543.422, 30.4954
544.877, 28.1449
546.446, 26.9476
547.821, 25.6379