Folder: semiconductor_data/si/prokes_1994/asmade

Note: si/prokes_1994/asmade/summary.md
## Raman

#### Curve 1 (Disordered Peak)
**Type**: Skewed Loretenzian\
**amplitude:** 142.1\
**center** 500.0\
**σ** 100.0
**σ2** 44.5


#### Curve 2 (Ordered Peak)
**Type**:Gaussian\
**amplitude** 22.0\
**center** 460.0\
**σ** 38.0\


## S<sup>2</sup>
**Disordered Curve Integrated Area:** 15238.077670\
**Ordered Curve Integrated Area:** 2096.073813\
**S<sup>2</sup>:** 0.1209


## Band gap
1.5 eV


Raman spectrum from Fig. 1b and band gap from Fig. 1a


[1]S. M. Prokes and O. J. Glembocki, Phys. Rev. B 49, 2238 (1994).
https://doi.org/10.1103/PhysRevB.49.2238

Note: README.md
# semiconductor_data
Data repository for semiconductor data

File: raman_peaks.csv
433.511, 148.907
434.966, 147.642
436.479, 150.078
437.993, 153.764
439.506, 156.775
441.02, 158.721
442.533, 160.779
444.046, 163.016
445.559, 165.119
447.073, 166.758
448.586, 168.334
450.098, 168.698
451.611, 170.106
453.125, 172.903
454.638, 174.735
456.151, 177.251
457.665, 179.743
459.178, 181.289
460.691, 183.924
462.267, 186.582
463.718, 187.484
465.231, 189.534
466.744, 192.166
468.257, 193.674
469.751, 196.353
471.284, 196.903
472.797, 198.127
474.309, 198.893
475.823, 201.075
477.336, 202.212
478.849, 203.35
480.362, 204.731
481.875, 206.455
483.388, 207.767
484.902, 211.565
486.415, 213.881
487.928, 214.86
489.441, 216.042
490.954, 217.283
492.468, 221.173
493.981, 224.018
495.494, 224.717
497.007, 226.048
498.52, 226.111
500.032, 224.85
501.544, 224.58
502.928, 223.462
503.871, 218.489
505.133, 217.57
506.2, 213.603
507.462, 210.431
508.191, 203.513
509.374, 197.812
510.696, 190.793
510.816, 194.58
512.12, 184.868
513.592, 177.279
515.036, 172.546
516.515, 169.596
517.968, 163.077
519.577, 158.494
520.254, 152.529
521.476, 152.885
522.542, 148.244
524.126, 140.515
525.701, 134.782
526.984, 133.356
527.798, 127.077
529.152, 127.077
530.546, 122.609
531.192, 116.517
532.587, 118.001
534.036, 111.174
535.794, 111.355
536.908, 107.395
538.231, 107.332
539.036, 102.771
540.292, 102.048
541.097, 97.1929
542.404, 97.7421
542.961, 93.164
544.268, 94.8393
545.78, 94.2214
547.292, 92.7731
548.683, 91.7001
550.316, 88.967
551.829, 87.3693
553.341, 87.046
554.854, 86.8987
556.279, 86.5269
557.49, 83.9634
558.703, 86.0549