Folder: semiconductor_data/ingan/robins_1999/in50/raman

Note: ingan/robins_1999/in50/raman/summary.md
## Raman

#### Curve 1 (Disordered Peak)
**Type**: Gaussian\
**amplitude:** 0.6\
**center** 653.0\
**σ** 25.0


#### Curve 2 (Ordered Peak)
**Type**:Gaussian\
**amplitude** 1.1\
**center** 686.7\
**σ** 17.0\


## S<sup>2</sup>
**Disordered Curve Integrated Area:** 36.313307\
**Ordered Curve Integrated Area:** 46.276666\
**S<sup>2</sup>:** 0.5603


## Band gap
0.5831 eV

Raman spectrum from Fig. 3 and band gap from Tauc plot generated from data in Fig. 1 of [1]

[1]L. H. Robins, A. J. Paul, C. A. Parker, J. C. Roberts, S. M. Bedair, E. L. Piner, and N. A. El-Masry, Materials Research Society Internet Journal of Nitride Semiconductor Research 4, 221 (1999).
https://doi.org/10.1557/S1092578300002490

Note: README.md
# semiconductor_data
Data repository for semiconductor data

File: curve_1_fit.dat
600.627,0.0650594
601.127,0.0678189
601.627,0.0706673
602.127,0.073606
602.627,0.0766363
603.127,0.0797596
603.627,0.0829771
604.127,0.0862899
604.627,0.0896993
605.127,0.0932062
605.627,0.0968116
606.127,0.100516
606.627,0.104321
607.127,0.108227
607.627,0.112235
608.127,0.116344
608.627,0.120556
609.127,0.12487
609.627,0.129287
610.127,0.133808
610.627,0.138431
611.127,0.143156
611.627,0.147984
612.127,0.152914
612.627,0.157945
613.127,0.163077
613.627,0.168308
614.127,0.173638
614.627,0.179065
615.127,0.184588
615.627,0.190205
616.127,0.195916
616.627,0.201718
617.127,0.207608
617.627,0.213586
618.127,0.219647
618.627,0.225791
619.127,0.232015
619.627,0.238314
620.127,0.244688
620.627,0.251131
621.127,0.257642
621.627,0.264216
622.127,0.27085
622.627,0.277539
623.127,0.284281
623.627,0.29107
624.127,0.297902
624.627,0.304774
625.127,0.311679
625.627,0.318614
626.127,0.325574
626.627,0.332553
627.127,0.339546
627.627,0.346548
628.127,0.353554
628.627,0.360557
629.127,0.367552
629.627,0.374534
630.127,0.381497
630.627,0.388434
631.127,0.395339
631.627,0.402207
632.127,0.409031
632.627,0.415805
633.127,0.422523
633.627,0.429178
634.127,0.435764
634.627,0.442275
635.127,0.448704
635.627,0.455045
636.127,0.461292
636.627,0.467439
637.127,0.473478
637.627,0.479405
638.127,0.485212
638.627,0.490893
639.127,0.496444
639.627,0.501857
640.127,0.507126
640.627,0.512247
641.127,0.517213
641.627,0.52202
642.127,0.526661
642.627,0.531131
643.127,0.535426
643.627,0.53954
644.127,0.54347
644.627,0.54721
645.127,0.550756
645.627,0.554104
646.127,0.55725
646.627,0.56019
647.127,0.562922
647.627,0.565442
648.127,0.567746
648.627,0.569833
649.127,0.571699
649.627,0.573343
650.127,0.574762
650.627,0.575956
651.127,0.576921
651.627,0.577658
652.127,0.578166
652.627,0.578443
653.127,0.57849
653.627,0.578306
654.127,0.577892
654.627,0.577248
655.127,0.576374
655.627,0.575273
656.127,0.573945
656.627,0.572392
657.127,0.570615
657.627,0.568618
658.127,0.566401
658.627,0.563968
659.127,0.561322
659.627,0.558465
660.127,0.555402
660.627,0.552135
661.127,0.548669
661.627,0.545007
662.127,0.541154
662.627,0.537114
663.127,0.532892
663.627,0.528492
664.127,0.523919
664.627,0.519179
665.127,0.514277
665.627,0.509218
666.127,0.504008
666.627,0.498653
667.127,0.493157
667.627,0.487528
668.127,0.481771
668.627,0.475892
669.127,0.469898
669.627,0.463794
670.127,0.457587
670.627,0.451283
671.127,0.444889
671.627,0.43841
672.127,0.431853
672.627,0.425226
673.127,0.418532
673.627,0.41178
674.127,0.404976
674.627,0.398125
675.127,0.391234
675.627,0.384309
676.127,0.377356
676.627,0.370382
677.127,0.363391
677.627,0.35639
678.127,0.349385
678.627,0.342381
679.127,0.335383
679.627,0.328398
680.127,0.32143
680.627,0.314485
681.127,0.307566
681.627,0.300681
682.127,0.293832
682.627,0.287024
683.127,0.280263
683.627,0.273552
684.127,0.266895
684.627,0.260297
685.127,0.25376
685.627,0.247289
686.127,0.240887
686.627,0.234557
687.127,0.228302
687.627,0.222126
688.127,0.21603
688.627,0.210018
689.127,0.204092
689.627,0.198255
690.127,0.192507
690.627,0.186851
691.127,0.18129
691.627,0.175824
692.127,0.170454
692.627,0.165183
693.127,0.160011
693.627,0.154939
694.127,0.149968
694.627,0.145099
695.127,0.140332
695.627,0.135667
696.127,0.131105
696.627,0.126647
697.127,0.12229
697.627,0.118037
698.127,0.113886
698.627,0.109838
699.127,0.105891
699.627,0.102045
700.127,0.0982999
700.627,0.0946543
701.127,0.0911076
701.627,0.0876589
702.127,0.0843071
702.627,0.0810511
703.127,0.0778898
703.627,0.074822
704.127,0.0718464
704.627,0.0689616
705.127,0.0661662
705.627,0.0634589
706.127,0.0608381
706.627,0.0583023
707.127,0.0558499
707.627,0.0534793
708.127,0.0511889
708.627,0.0489771
709.127,0.0468422
709.627,0.0447825
710.127,0.0427963
710.627,0.0408819
711.127,0.0390376
711.627,0.0372616
712.127,0.0355522
712.627,0.0339078
713.127,0.0323265
713.627,0.0308066
714.127,0.0293466
714.627,0.0279445
715.127,0.0265989
715.627,0.025308
716.127,0.0240701
716.627,0.0228836
717.127,0.021747
717.627,0.0206585
718.127,0.0196168
718.627,0.0186201
719.127,0.017667
719.627,0.0167561
720.127,0.0158857
720.627,0.0150546
721.127,0.0142613
721.627,0.0135044
722.127,0.0127825
722.627,0.0120945
723.127,0.0114389
723.627,0.0108145
724.127,0.0102201
724.627,0.00965458
725.127,0.0091167
725.627,0.00860534
726.127,0.00811944
726.627,0.00765791
727.127,0.00721974
727.627,0.00680393
728.127,0.00640952
728.627,0.00603556
729.127,0.00568115
729.627,0.00534542
730.127,0.00502753
730.627,0.00472666
731.127,0.00444202
731.627,0.00417286
732.127,0.00391844
732.627,0.00367807
733.127,0.00345107
733.627,0.00323679
734.127,0.00303461
734.627,0.00284392
735.127,0.00266415
735.627,0.00249475
736.127,0.00233519
736.627,0.00218496
737.127,0.00204358
737.627,0.00191059
738.127,0.00178554
738.627,0.00166801
739.127,0.0015576
739.627,0.00145391
740.127,0.00135659
740.627,0.00126528
741.127,0.00117964
741.627,0.00109936
742.127,0.00102414
742.627,0.000953677
743.127,0.000887713
743.627,0.000825982
744.127,0.000768238
744.627,0.000714245
745.127,0.000663783
745.627,0.00061664
746.127,0.000572616
746.627,0.000531524
747.027,0.00050064

File: curve_2_fit.dat
600.627,2.80318e-06
601.127,3.25368e-06
601.627,3.7733e-06
602.127,4.3721e-06
602.627,5.06154e-06
603.127,5.85461e-06
603.627,6.76607e-06
604.127,7.81265e-06
604.627,9.01328e-06
605.127,1.03894e-05
605.627,1.19652e-05
606.127,1.37681e-05
606.627,1.58289e-05
607.127,1.81824e-05
607.627,2.08677e-05
608.127,2.39288e-05
608.627,2.74151e-05
609.127,3.1382e-05
609.627,3.58919e-05
610.127,4.10142e-05
610.627,4.68269e-05
611.127,5.3417e-05
611.627,6.08817e-05
612.127,6.93293e-05
612.627,7.88806e-05
613.127,8.96699e-05
613.627,0.000101846
614.127,0.000115576
614.627,0.000131043
615.127,0.000148451
615.627,0.000168025
616.127,0.000190015
616.627,0.000214697
617.127,0.000242375
617.627,0.000273383
618.127,0.00030809
618.627,0.000346902
619.127,0.000390266
619.627,0.000438668
620.127,0.000492646
620.627,0.000552786
621.127,0.00061973
621.627,0.000694177
622.127,0.000776894
622.627,0.000868712
623.127,0.000970539
623.627,0.00108336
624.127,0.00120825
624.627,0.00134637
625.127,0.00149897
625.627,0.00166742
626.127,0.00185319
626.627,0.00205787
627.127,0.00228318
627.627,0.00253096
628.127,0.00280319
628.627,0.00310201
629.127,0.00342971
629.627,0.00378873
630.127,0.00418171
630.627,0.00461144
631.127,0.00508092
631.627,0.00559335
632.127,0.00615211
632.627,0.00676081
633.127,0.0074233
633.627,0.00814363
634.127,0.00892611
634.627,0.00977529
635.127,0.010696
635.627,0.0116932
636.127,0.0127723
636.627,0.0139389
637.127,0.0151989
637.627,0.0165584
638.127,0.0180238
638.627,0.0196019
639.127,0.0212996
639.627,0.0231244
640.127,0.0250836
640.627,0.0271853
641.127,0.0294375
641.627,0.0318486
642.127,0.0344274
642.627,0.0371826
643.127,0.0401235
643.627,0.0432594
644.127,0.0466
644.627,0.050155
645.127,0.0539343
645.627,0.0579481
646.127,0.0622066
646.627,0.0667202
647.127,0.0714991
647.627,0.0765538
648.127,0.0818948
648.627,0.0875324
649.127,0.0934769
649.627,0.0997385
650.127,0.106327
650.627,0.113253
651.127,0.120525
651.627,0.128153
652.127,0.136145
652.627,0.14451
653.127,0.153256
653.627,0.162391
654.127,0.17192
654.627,0.181851
655.127,0.192189
655.627,0.202938
656.127,0.214103
656.627,0.225685
657.127,0.237688
657.627,0.250112
658.127,0.262957
658.627,0.276222
659.127,0.289904
659.627,0.304
660.127,0.318505
660.627,0.333413
661.127,0.348715
661.627,0.364404
662.127,0.380467
662.627,0.396894
663.127,0.413672
663.627,0.430784
664.127,0.448215
664.627,0.465947
665.127,0.48396
665.627,0.502233
666.127,0.520744
666.627,0.539469
667.127,0.558383
667.627,0.577457
668.127,0.596666
668.627,0.615978
669.127,0.635364
669.627,0.654792
670.127,0.674228
670.627,0.693638
671.127,0.712989
671.627,0.732243
672.127,0.751365
672.627,0.770317
673.127,0.789062
673.627,0.807562
674.127,0.825779
674.627,0.843674
675.127,0.861208
675.627,0.878345
676.127,0.895046
676.627,0.911272
677.127,0.926988
677.627,0.942157
678.127,0.956743
678.627,0.970712
679.127,0.984031
679.627,0.996667
680.127,1.00859
680.627,1.01977
681.127,1.03018
681.627,1.03979
682.127,1.04858
682.627,1.05653
683.127,1.06361
683.627,1.06982
684.127,1.07512
684.627,1.07952
685.127,1.08299
685.627,1.08553
686.127,1.08714
686.627,1.0878
687.127,1.08751
687.627,1.08629
688.127,1.08412
688.627,1.08102
689.127,1.07699
689.627,1.07205
690.127,1.0662
690.627,1.05947
691.127,1.05186
691.627,1.04341
692.127,1.03412
692.627,1.02403
693.127,1.01315
693.627,1.00152
694.127,0.98917
694.627,0.976121
695.127,0.962408
695.627,0.948065
696.127,0.933125
696.627,0.917624
697.127,0.901597
697.627,0.885081
698.127,0.868115
698.627,0.850735
699.127,0.832979
699.627,0.814887
700.127,0.796495
700.627,0.777844
701.127,0.75897
701.627,0.739912
702.127,0.720706
702.627,0.70139
703.127,0.681999
703.627,0.662569
704.127,0.643134
704.627,0.623728
705.127,0.604382
705.627,0.585128
706.127,0.565997
706.627,0.547015
707.127,0.528212
707.627,0.509612
708.127,0.491241
708.627,0.473121
709.127,0.455275
709.627,0.437721
710.127,0.420479
710.627,0.403566
711.127,0.386997
711.627,0.370786
712.127,0.354946
712.627,0.339488
713.127,0.324422
713.627,0.309755
714.127,0.295495
714.627,0.281646
715.127,0.268214
715.627,0.255201
716.127,0.242608
716.627,0.230437
717.127,0.218686
717.627,0.207355
718.127,0.19644
718.627,0.185938
719.127,0.175845
719.627,0.166156
720.127,0.156864
720.627,0.147963
721.127,0.139447
721.627,0.131306
722.127,0.123534
722.627,0.11612
723.127,0.109057
723.627,0.102335
724.127,0.0959436
724.627,0.0898734
725.127,0.0841142
725.627,0.0786558
726.127,0.0734878
726.627,0.0685998
727.127,0.0639813
727.627,0.059622
728.127,0.0555115
728.627,0.0516396
729.127,0.0479961
729.627,0.0445709
730.127,0.0413542
730.627,0.0383365
731.127,0.035508
731.627,0.0328598
732.127,0.0303826
732.627,0.0280679
733.127,0.025907
733.627,0.0238917
734.127,0.022014
734.627,0.0202664
735.127,0.0186413
735.627,0.0171316
736.127,0.0157305
736.627,0.0144315
737.127,0.0132283
737.627,0.0121148
738.127,0.0110855
738.627,0.0101348
739.127,0.0092576
739.627,0.00844899
740.127,0.00770433
740.627,0.0070192
741.127,0.00638944
741.627,0.00581115
742.127,0.00528061
742.627,0.00479434
743.127,0.00434907
743.627,0.00394174
744.127,0.00356945
744.627,0.00322952
745.127,0.00291943
745.627,0.00263683
746.127,0.00237951
746.627,0.00214544
747.027,0.00197365

File: curve_total_fit.dat
600.627,-2.9474
601.127,-2.94464
601.627,-2.94179
602.127,-2.93885
602.627,-2.93582
603.127,-2.93269
603.627,-2.92947
604.127,-2.92616
604.627,-2.92275
605.127,-2.91924
605.627,-2.91563
606.127,-2.91193
606.627,-2.90812
607.127,-2.90421
607.627,-2.9002
608.127,-2.89609
608.627,-2.89188
609.127,-2.88756
609.627,-2.88313
610.127,-2.87861
610.627,-2.87398
611.127,-2.86925
611.627,-2.86441
612.127,-2.85947
612.627,-2.85443
613.127,-2.84929
613.627,-2.84405
614.127,-2.83871
614.627,-2.83326
615.127,-2.82772
615.627,-2.82208
616.127,-2.81635
616.627,-2.81053
617.127,-2.80461
617.627,-2.7986
618.127,-2.7925
618.627,-2.78632
619.127,-2.78005
619.627,-2.77371
620.127,-2.76728
620.627,-2.76077
621.127,-2.7542
621.627,-2.74755
622.127,-2.74083
622.627,-2.73405
623.127,-2.72721
623.627,-2.72031
624.127,-2.71335
624.627,-2.70634
625.127,-2.69928
625.627,-2.69218
626.127,-2.68503
626.627,-2.67785
627.127,-2.67063
627.627,-2.66338
628.127,-2.6561
628.627,-2.6488
629.127,-2.64148
629.627,-2.63414
630.127,-2.62678
630.627,-2.61941
631.127,-2.61204
631.627,-2.60466
632.127,-2.59728
632.627,-2.58989
633.127,-2.58251
633.627,-2.57514
634.127,-2.56777
634.627,-2.56041
635.127,-2.55306
635.627,-2.54572
636.127,-2.53839
636.627,-2.53108
637.127,-2.52378
637.627,-2.5165
638.127,-2.50922
638.627,-2.50196
639.127,-2.49471
639.627,-2.48748
640.127,-2.48025
640.627,-2.47303
641.127,-2.46581
641.627,-2.45859
642.127,-2.45137
642.627,-2.44414
643.127,-2.43691
643.627,-2.42966
644.127,-2.42239
644.627,-2.41509
645.127,-2.40777
645.627,-2.40041
646.127,-2.393
646.627,-2.38555
647.127,-2.37804
647.627,-2.37046
648.127,-2.36282
648.627,-2.35509
649.127,-2.34728
649.627,-2.33938
650.127,-2.33137
650.627,-2.32325
651.127,-2.31501
651.627,-2.30665
652.127,-2.29815
652.627,-2.2895
653.127,-2.28071
653.627,-2.27176
654.127,-2.26265
654.627,-2.25336
655.127,-2.24389
655.627,-2.23425
656.127,-2.22441
656.627,-2.21438
657.127,-2.20415
657.627,-2.19373
658.127,-2.1831
658.627,-2.17227
659.127,-2.16123
659.627,-2.14999
660.127,-2.13855
660.627,-2.12691
661.127,-2.11507
661.627,-2.10305
662.127,-2.09084
662.627,-2.07845
663.127,-2.06589
663.627,-2.05318
664.127,-2.04032
664.627,-2.02733
665.127,-2.01422
665.627,-2.00101
666.127,-1.98771
666.627,-1.97434
667.127,-1.96092
667.627,-1.94747
668.127,-1.93402
668.627,-1.92059
669.127,-1.9072
669.627,-1.89387
670.127,-1.88064
670.627,-1.86754
671.127,-1.85458
671.627,-1.84181
672.127,-1.82924
672.627,-1.81692
673.127,-1.80486
673.627,-1.79312
674.127,-1.7817
674.627,-1.77066
675.127,-1.76002
675.627,-1.7498
676.127,-1.74006
676.627,-1.7308
677.127,-1.72208
677.627,-1.71391
678.127,-1.70633
678.627,-1.69936
679.127,-1.69304
679.627,-1.68739
680.127,-1.68244
680.627,-1.6782
681.127,-1.67471
681.627,-1.67199
682.127,-1.67005
682.627,-1.6689
683.127,-1.66858
683.627,-1.66909
684.127,-1.67044
684.627,-1.67264
685.127,-1.67571
685.627,-1.67964
686.127,-1.68444
686.627,-1.69011
687.127,-1.69664
687.627,-1.70405
688.127,-1.71231
688.627,-1.72142
689.127,-1.73137
689.627,-1.74215
690.127,-1.75375
690.627,-1.76614
691.127,-1.7793
691.627,-1.79323
692.127,-1.80788
692.627,-1.82325
693.127,-1.83929
693.627,-1.85599
694.127,-1.87332
694.627,-1.89124
695.127,-1.90972
695.627,-1.92873
696.127,-1.94823
696.627,-1.96819
697.127,-1.98857
697.627,-2.00934
698.127,-2.03046
698.627,-2.05189
699.127,-2.07359
699.627,-2.09553
700.127,-2.11766
700.627,-2.13996
701.127,-2.16238
701.627,-2.18489
702.127,-2.20745
702.627,-2.23002
703.127,-2.25257
703.627,-2.27507
704.127,-2.29748
704.627,-2.31977
705.127,-2.34191
705.627,-2.36387
706.127,-2.38562
706.627,-2.40714
707.127,-2.4284
707.627,-2.44937
708.127,-2.47003
708.627,-2.49036
709.127,-2.51034
709.627,-2.52995
710.127,-2.54918
710.627,-2.56801
711.127,-2.58642
711.627,-2.60441
712.127,-2.62196
712.627,-2.63906
713.127,-2.65571
713.627,-2.6719
714.127,-2.68762
714.627,-2.70287
715.127,-2.71765
715.627,-2.73195
716.127,-2.74578
716.627,-2.75914
717.127,-2.77202
717.627,-2.78444
718.127,-2.7964
718.627,-2.8079
719.127,-2.81895
719.627,-2.82955
720.127,-2.83971
720.627,-2.84944
721.127,-2.85875
721.627,-2.86765
722.127,-2.87614
722.627,-2.88424
723.127,-2.89196
723.627,-2.89931
724.127,-2.90629
724.627,-2.91293
725.127,-2.91923
725.627,-2.9252
726.127,-2.93085
726.627,-2.9362
727.127,-2.94126
727.627,-2.94603
728.127,-2.95054
728.627,-2.95478
729.127,-2.95878
729.627,-2.96254
730.127,-2.96608
730.627,-2.9694
731.127,-2.97251
731.627,-2.97543
732.127,-2.97816
732.627,-2.98071
733.127,-2.9831
733.627,-2.98533
734.127,-2.98741
734.627,-2.98935
735.127,-2.99115
735.627,-2.99283
736.127,-2.99439
736.627,-2.99584
737.127,-2.99719
737.627,-2.99843
738.127,-2.99959
738.627,-3.00066
739.127,-3.00164
739.627,-3.00256
740.127,-3.0034
740.627,-3.00417
741.127,-3.00489
741.627,-3.00555
742.127,-3.00615
742.627,-3.00671
743.127,-3.00722
743.627,-3.00769
744.127,-3.00812
744.627,-3.00851
745.127,-3.00888
745.627,-3.0092
746.127,-3.00951
746.627,-3.00978
747.027,-3.00998

File: raman_peaks.csv
597.842, -2.95339
600.627, -2.94094
604.478, -2.91592
606.887, -2.87815
613.595, -2.84068
617.612, -2.79671
619.842, -2.75893
622.828, -2.72752
626.883, -2.68671
629.655, -2.65529
632.205, -2.61437
635.457, -2.55138
638.582, -2.51366
640.699, -2.46745
643.468, -2.43181
646.798, -2.37936
648.779, -2.34367
652.032, -2.28278
654.081, -2.24289
657.059, -2.19884
660.376, -2.12742
662.984, -2.06649
665.729, -1.99713
668.26, -1.92777
671.306, -1.85844
676.155, -1.74498
679.187, -1.69714
681.704, -1.69057
683.346, -1.68225
687.298, -1.69938
690.406, -1.7586
692.773, -1.82451
695.098, -1.89168
697.31, -1.98034
699.085, -2.05948
700.791, -2.14284
702.86, -2.2336
704.857, -2.32224
706.41, -2.39189
707.748, -2.46152
709.738, -2.54068
711.733, -2.62827
713.937, -2.70534
716.777, -2.77191
719.183, -2.83213
721.796, -2.87973
724.54, -2.91153
729.438, -2.94979
731.319, -2.97521
736.056, -2.98818
739.719, -3.00108
742.519, -3.0097
744.671, -3.01406
747.044, -3.02687