Folder: semiconductor_data/si/fogal_2001/grown_sample

Note: si/fogal_2001/grown_sample/summary.md
## Raman

#### Curve 1 (Disordered Peak)
**Type**: Skewed Gaussian\
**amplitude:** 5.3\
**center** 466.0\
**σ** 44.5
**σ2** 29.0


#### Curve 2 (Ordered Peak)
**Type**:Skewed Gaussian\
**amplitude** 0.4\
**center** 287.6\
**σ** 40.0\
**σ2** 37.1


## S<sup>2</sup>
**Disordered Curve Integrated Area:** 491.593096\
**Ordered Curve Integrated Area:** 42.544772\
**S<sup>2</sup>:** 0.0797


# Band gap
1.42 eV


Raman spectrum from Fig. 1 and Band gap from Fig. 3 of [1]

[1]B. J. Fogal, S. K. O’Leary, D. J. Lockwood, J.-M. Baribeau, M. Noël, and J. C. Zwinkels, Solid State Communications 120, 429 (2001).
https://doi.org/10.1016/S0038-1098(01)00422-7

Note: README.md
# semiconductor_data
Data repository for semiconductor data

File: raman_peaks.csv
216.031, 2.09872
232.412, 2.24567
248.805, 2.5288
263.545, 2.71496
280.366, 2.98766
297.904, 3.16195
316.448, 3.23188
333.581, 3.28118
351.735, 3.32312
369.029, 3.54634
385.915, 3.65767
400.717, 3.68976
406.541, 3.94228
410.636, 4.21242
415.033, 4.39936
426.64, 5.02278
435.891, 5.61369
449.462, 6.20475
459.269, 6.60268
470.962, 6.63864
470.962, 6.63864
477.028, 6.11656
490.153, 5.20494
500.134, 4.21835
504.646, 3.1408
505.3, 3.76725
512.433, 2.72838
515.585, 2.35399
526.516, 2.03819
532.779, 1.68726
545.456, 1.48236
561.083, 1.34075
579.877, 1.34027
594.531, 1.33552