Folder: semiconductor_data/si/fogal_2001/pd-a-sample

Note: si/fogal_2001/pd-a-sample/summary.md
## Raman

#### Curve 1 (Disordered Peak)
**Type**: Skewed Gaussian\
**amplitude:** 6.6\
**center** 472.8\
**σ** 32.0
**σ2** 28.4


#### Curve 2 (Ordered Peak)
**Type**:Skewed Gaussian\
**amplitude** 1.0\
**center** 320.0\
**σ** 50.0\
**σ2** 29.9


## S<sup>2</sup>
**Disordered Curve Integrated Area:** 499.199946\
**Ordered Curve Integrated Area:** 100.118980\
**S<sup>2</sup>:** 0.1671

## Band gap
1.79 eV


Raman spectrum from Fig. 1 and Band gap from Fig. 3 of [1]

[1]B. J. Fogal, S. K. O’Leary, D. J. Lockwood, J.-M. Baribeau, M. Noël, and J. C. Zwinkels, Solid State Communications 120, 429 (2001).
https://doi.org/10.1016/S0038-1098(01)00422-7

Note: README.md
# semiconductor_data
Data repository for semiconductor data

File: raman_peaks.csv
213.401, 0.712629
223.778, 0.487651
241.586, 0.504536
258.036, 0.585207
270.504, 0.813563
286.661, 0.977001
305.636, 1.21798
323.389, 1.27916
341.193, 1.21629
360.245, 1.24082
369.96, 1.25677
376.219, 1.57393
390.069, 1.77135
398.899, 2.04049
411.173, 2.32316
418.034, 2.63598
421.359, 2.89397
427.612, 3.12938
429.23, 3.40943
431.635, 3.6481
437.737, 4.21937
438.502, 3.91627
441.451, 4.5525
443.604, 4.93584
448.1, 4.79477
448.316, 5.20108
450.277, 5.68588
450.7, 5.47941
455.843, 5.93172
457.484, 6.22124
462.571, 6.50096
474.209, 6.56932
486.078, 6.41088
489.303, 5.816
490.591, 5.54032
491.126, 5.22245
494.164, 4.84213
497.75, 4.59017
500.222, 4.24398
504.368, 3.9215
507.692, 3.1469
508.668, 3.65978
511.981, 2.75526
512.702, 3.40576
514.461, 2.32092
515.36, 2.0749
517.426, 1.77091
521.011, 1.41126
529.724, 1.02899
534.552, 0.677459
545.428, 0.416356
549.018, 0.198736