Folder: semiconductor_data/si/fogal_2001/sd-a-sample

Note: si/fogal_2001/sd-a-sample/summary.md
## Raman

#### Curve 1 (Disordered Peak)
**Type**: Skewed Gaussian\
**amplitude:** 6.5\
**center** 464.0\
**σ** 55.0
**σ2** 40.0


#### Curve 2 (Ordered Peak)
**Type**:Skewed Gaussian\
**amplitude** 0.0\
**center** 284.8\
**σ** 10.2\
**σ2** 25.0


## S<sup>2</sup>
**Disordered Curve Integrated Area:** 774.816858\
**Ordered Curve Integrated Area:** 0.022097\
**S<sup>2</sup>:** 0.0000

#Band gap
1.14 eV

Raman spectrum from Fig. 1 and Band gap from Fig. 3 of [1]

[1]B. J. Fogal, S. K. O’Leary, D. J. Lockwood, J.-M. Baribeau, M. Noël, and J. C. Zwinkels, Solid State Communications 120, 429 (2001).
https://doi.org/10.1016/S0038-1098(01)00422-7

Note: README.md
# semiconductor_data
Data repository for semiconductor data

File: raman_peaks.csv
217.76, 1.93221
231.057, 1.67471
240.744, 1.64884
253.424, 1.76475
260.806, 1.95579
267.82, 2.24298
281.635, 2.46911
289.199, 2.5739
296.908, 2.74428
313.058, 2.97479
328.982, 3.1092
337.808, 3.29427
350.266, 3.36512
355.324, 3.52254
370.058, 3.61896
375.053, 3.88299
388.488, 4.09833
400.362, 4.21675
401.896, 4.46314
412.987, 4.74649
420.338, 5.1577
428.391, 5.37818
431.108, 5.63806
434.811, 5.94828
438.224, 6.18182
445.668, 6.49605
457.206, 6.69181
472.118, 6.62694
479.754, 6.41052
481.135, 6.06783
486.966, 5.7925
489.285, 5.52625
490.002, 5.19879
493.753, 4.85186
497.871, 4.59545
500.053, 4.23543
504.036, 3.91902
504.113, 4.45186
508.67, 3.65602
510.559, 3.11378
513.007, 3.39858
513.591, 2.73417
522.534, 2.52344
525.605, 2.17661
529.925, 1.85585
533.158, 1.48246
539.499, 1.12306
540.741, 0.923644
543.844, 1.47316
545.47, 0.686207
553.634, 0.457658
570.137, 0.309726
574.671, 0.192957