Folder: semiconductor_data/ingan/gartner_2006/in14

Note: ingan/gartner_2006/in14/summary.md
## Raman

#### Curve 1 (Disordered Peak)
**Type**: Skewed Loretenzian\
**amplitude:** 0.4\
**center** 572.0\
**σ** 22.0
**σ2** 22.0


#### Curve 2 (Ordered Peak)
**Type**:Gaussian\
**amplitude** 0.1\
**center** 746.1\
**σ** 15.0\


## S<sup>2</sup>
**Disordered Curve Integrated Area:** 12.876669\
**Ordered Curve Integrated Area:** 4.399133\
**S<sup>2</sup>:** 0.2546


## Band gap
2.81 eV


Raman spectrum Fig. 2 and band gap from Fig. 5 of [1]

[1]M. Gartner, C. Kruse, M. Modreanu, A. Tausendfreund, C. Roder, and D. Hommel, Applied Surface Science 253, 254 (2006).
https://doi.org/10.1016/j.apsusc.2006.05.077

Note: README.md
# semiconductor_data
Data repository for semiconductor data

File: raman_peaks.csv
496.996, 0.415768
514.024, 0.431982
531.722, 0.461357
547.052, 0.559821
555.31, 0.767857
558.244, 0.934179
560.879, 1.08036
571.709, 5.95642
576.279, 1.08482
578.004, 0.937
580.666, 0.757929
586.239, 0.574625
596.979, 0.440679
613.989, 0.434804
633.131, 0.434804
650.151, 0.440679
668.229, 0.440679
686.317, 0.452429
704.395, 0.452429
722.512, 0.499429
730.394, 0.655714
731.637, 0.815833
735.423, 1.02583
738.391, 0.830357
739.928, 0.732143
747.209, 0.611054
762.932, 0.511179