Folder: semiconductor_data/inn/inushima_2001/W280

Note: inn/inushima_2001/W280/summary.md
## Raman

#### Curve 1 (Disordered Peak)
**Type**: Skewed Gaussian\
**amplitude:** 0.1\
**center** 442.6\
**σ** 5.0
**σ2** 8.0


#### Curve 2 (Ordered Peak)
**Type**:Skewed Loretenzian\
**amplitude** 2.1\
**center** 491.6\
**σ** 8.0\
**σ2** 8.0


## S<sup>2</sup>
**Disordered Curve Integrated Area:** 2.443963\
**Ordered Curve Integrated Area:** 26.254943\
**S<sup>2</sup>:** 0.9148



## Band gap
0.89 eV


Raman spectrum from Fig. 2 and band gap from Table 1 of [1]


[1]T. Inushima, V. V. Mamutin, V. A. Vekshin, S. V. Ivanov, T. Sakon, M. Motokawa, and S. Ohoya, Journal of Crystal Growth 227–228, 481 (2001).
https://doi.org/10.1016/S0022-0248(01)00747-3

Note: README.md
# semiconductor_data
Data repository for semiconductor data

File: raman_peaks.csv
405.798, 0.668179
410.347, 0.698907
414.939, 0.694712
414.947, 0.661257
419.717, 0.671352
424.305, 0.685064
428.786, 0.660681
429.538, 0.707402
431.65, 0.660681
432.435, 0.705672
433.538, 0.755162
436.796, 0.769697
437.138, 0.821994
439.955, 0.872369
441.535, 0.921974
444.323, 0.901209
444.653, 0.847912
449.11, 0.837761
451.905, 0.786232
453.881, 0.841221
456.079, 0.791328
457.216, 0.74624
461.719, 0.764314
463.611, 0.722976
467.018, 0.782772
468.352, 0.74278
470.109, 0.8313
472.583, 0.792539
474.96, 0.835069
478.143, 0.828532
478.709, 0.886107
482.111, 0.871215
483.073, 0.914668
484.073, 0.991191
484.857, 1.04483
485.245, 1.08879
485.763, 1.14308
486.016, 1.19884
486.394, 1.28709
486.403, 1.24556
486.896, 1.33184
487.16, 1.4238
487.169, 1.38227
487.527, 1.56396
487.538, 1.5117
487.813, 1.46879
487.896, 1.69374
487.905, 1.65221
488.258, 1.85502
488.267, 1.81349
488.276, 1.77196
488.285, 1.73181
488.776, 1.91062
489.01, 2.05575
489.019, 2.01422
489.028, 1.97269
489.385, 2.15611
489.934, 2.5021
490.115, 2.45628
490.124, 2.41475
490.133, 2.37322
490.142, 2.33169
490.151, 2.29016
490.859, 2.68839
490.871, 2.63394
490.88, 2.59241
490.889, 2.55088
493.291, 2.47936
493.412, 2.53242
493.513, 2.0704
493.645, 2.68008
493.654, 2.63855
493.663, 2.59702
493.698, 2.44013
493.707, 2.3986
493.716, 2.35707
493.725, 2.31554
493.734, 2.27401
493.757, 2.16961
493.769, 2.11527
494.142, 2.22671
494.197, 1.97753
494.206, 1.936
494.215, 1.89447
494.233, 1.81141
494.425, 2.02391
494.621, 1.85571
494.641, 1.76504
494.65, 1.72351
495.203, 1.62107
495.23, 1.49821
495.324, 1.67067
495.659, 1.55723
495.905, 1.4411
496.315, 1.38711
496.324, 1.34558
496.333, 1.30405
496.74, 1.25998
496.904, 1.11924
497.149, 1.21153
497.159, 1.16423
497.575, 1.07944
497.584, 1.03791
497.992, 0.99396
498.229, 0.947684
499.999, 0.906401
500.805, 0.860833
501.553, 0.817655
504.323, 0.775235
506.699, 0.73033
508.859, 0.76416
511.572, 0.723937
515.945, 0.732782
520.316, 0.748932
523.503, 0.725091
527.878, 0.723553
527.886, 0.687791
531.31, 0.670025
533.051, 0.710094
536.505, 0.678562