Folder: semiconductor_data/si/lockwood_1995/49nm

Note: si/lockwood_1995/49nm/summary.md
## Raman

#### Curve 1 (Disordered Peak)
**Type**: Skewed Loretenzian\
**amplitude:** 5.2\
**center** 517.7\
**σ** 16.2
**σ2** 7.3


#### Curve 2 (Ordered Peak)
**Type**:Gaussian\
**amplitude** 0.3\
**center** 489.9\
**σ** 11.0\


## S<sup>2</sup>
**Disordered Curve Integrated Area:** 94.739193\
**Ordered Curve Integrated Area:** 6.893228\
**S<sup>2</sup>:** 0.0678



## Band gap
1.4 eV

Raman spectrum from Fig. 1 and band gap from Fig. 2 of [1]

[1]D. J. Lockwood and A. G. Wang, Solid State Communications 94, 905 (1995).
https://doi.org/10.1016/0038-1098(95)00186-7

Note: README.md
# semiconductor_data
Data repository for semiconductor data

File: raman_peaks.csv
444.245, 2.71287
445.965, 2.75116
447.681, 2.75687
449.397, 2.76529
451.116, 2.78756
452.837, 2.83591
454.553, 2.83944
456.271, 2.85981
457.986, 2.86171
459.699, 2.84704
461.421, 2.89267
462.755, 2.95125
463.931, 2.99751
465.648, 3.01272
467.364, 3.02223
468.685, 3.06805
469.87, 3.10263
471.583, 3.08443
473.302, 3.11132
475.023, 3.1526
476.742, 3.18356
478.23, 3.2311
479.718, 3.27917
481.434, 3.2808
483.152, 3.30606
484.875, 3.35821
486.477, 3.36446
487.694, 3.44405
489.186, 3.4445
490.454, 3.48306
491.998, 3.51769
493.558, 3.56671
494.892, 3.6309
496.14, 3.63095
496.696, 3.70664
497.72, 3.77528
499.055, 3.84746
499.895, 3.90532
500.828, 3.99455
502.075, 4.01515
502.736, 4.1035
503.417, 4.18317
504.092, 4.25588
504.681, 4.33142
505.296, 4.42105
505.66, 4.51483
506.5, 4.59178
506.983, 4.66698
507.528, 4.76528
507.889, 4.84027
508.02, 4.94176
508.264, 5.01326
508.348, 5.05359
508.67, 5.12496
508.914, 5.19401
509.191, 5.27689
509.565, 5.38373
509.876, 5.45906
510.029, 5.54058
510.555, 5.63021
510.576, 5.73048
510.977, 5.8385
511.084, 5.95114
511.456, 6.07389
511.651, 6.18849
512.031, 6.2763
512.249, 6.36454
512.543, 6.47633
512.914, 6.57741
513.094, 6.62512
513.246, 6.7062
513.612, 6.79912
513.933, 6.88547
514.238, 6.99679
514.326, 7.0658
514.61, 7.14572
514.737, 7.21324
514.748, 7.29237
514.915, 7.36606
514.975, 7.42582
515.088, 7.48557
515.254, 7.55927
515.456, 7.63977
515.587, 7.70666
515.948, 7.78023
516.61, 7.86256
517.656, 7.78434
517.849, 7.71637
518.278, 7.62732
518.627, 7.52491
518.757, 7.44545
519.062, 7.29237
519.124, 7.36273
519.135, 7.22027
519.307, 7.00605
519.316, 7.07178
519.374, 7.14617
519.376, 6.9454
519.558, 6.85517
519.663, 6.76924
519.72, 6.62293
519.808, 6.69334
519.883, 6.40179
519.885, 6.55257
519.973, 6.48187
520.09, 6.26181
520.225, 6.3375
520.267, 6.08285
520.313, 6.17222
520.335, 6.01622
520.692, 5.78856
520.702, 5.85429
520.712, 5.9262
520.761, 5.71991
521.109, 5.42855
521.118, 5.49427
521.124, 5.35435
521.128, 5.55971
521.131, 5.64221
521.245, 5.29111
521.487, 5.12529
521.597, 5.20995
521.612, 4.91094
521.669, 4.98189
521.726, 5.05673
521.961, 4.84405
522.089, 4.7596
522.12, 4.68162
522.329, 4.57838
522.611, 4.48115
522.757, 4.41004
523.029, 4.31563
523.28, 4.25289
523.476, 4.16774
523.672, 4.08906
523.948, 4.01746
524.368, 3.95412
524.585, 3.89018
524.829, 3.81668
525.062, 3.73542
525.645, 3.66969
526.005, 3.60498
526.66, 3.51279
526.979, 3.4055
527.587, 3.29597
528.589, 3.21217
529.903, 3.13468
531.115, 3.06926
531.716, 3.00291
532.523, 2.91963
533.919, 2.87013
535.477, 2.86228
536.82, 2.80112
538.27, 2.76374
539.667, 2.72183
541.381, 2.71613
543.092, 2.68543
544.805, 2.6724
546.52, 2.67403