Folder: semiconductor_data/ingan/robins_1999/in36/raman

Note: ingan/robins_1999/in36/raman/summary.md
## Raman

#### Curve 1 (Disordered Peak)
**Type**: Gaussian\
**amplitude:** 0.5\
**center** 672.2\
**σ** 22.7


#### Curve 2 (Ordered Peak)
**Type**:Gaussian\
**amplitude** 1.0\
**center** 696.2\
**σ** 12.2\


## S<sup>2</sup>
**Disordered Curve Integrated Area:** 25.710760\
**Ordered Curve Integrated Area:** 30.049216\
**S<sup>2</sup>:** 0.5389


## Band gap
0.7408 eV

Raman spectrum from Fig. 3 and band gap from Tauc plot generated from data in Fig. 1 of [1]

[1]L. H. Robins, A. J. Paul, C. A. Parker, J. C. Roberts, S. M. Bedair, E. L. Piner, and N. A. El-Masry, Materials Research Society Internet Journal of Nitride Semiconductor Research 4, 221 (1999).
https://doi.org/10.1557/S1092578300002490

Note: README.md
# semiconductor_data
Data repository for semiconductor data

File: curve_1_fit.dat
609.729,0.0101604
610.229,0.0107947
610.729,0.0114629
611.229,0.0121666
611.729,0.0129072
612.229,0.0136862
612.729,0.0145052
613.229,0.0153657
613.729,0.0162693
614.229,0.0172177
614.729,0.0182125
615.229,0.0192555
615.729,0.0203482
616.229,0.0214925
616.729,0.02269
617.229,0.0239427
617.729,0.0252522
618.229,0.0266203
618.729,0.028049
619.229,0.0295399
619.729,0.0310949
620.229,0.0327159
620.729,0.0344046
621.229,0.0361629
621.729,0.0379925
622.229,0.0398953
622.729,0.0418729
623.229,0.0439273
623.729,0.04606
624.229,0.0482727
624.729,0.0505671
625.229,0.0529448
625.729,0.0554073
626.229,0.0579562
626.729,0.0605927
627.229,0.0633184
627.729,0.0661345
628.229,0.0690423
628.729,0.0720428
629.229,0.0751371
629.729,0.0783262
630.229,0.0816109
630.729,0.084992
631.229,0.0884701
631.729,0.0920457
632.229,0.0957192
632.729,0.0994909
633.229,0.103361
633.729,0.107329
634.229,0.111395
634.729,0.11556
635.229,0.119821
635.729,0.124179
636.229,0.128633
636.729,0.133182
637.229,0.137825
637.729,0.14256
638.229,0.147386
638.729,0.152302
639.229,0.157304
639.729,0.162392
640.229,0.167563
640.729,0.172815
641.229,0.178144
641.729,0.183548
642.229,0.189024
642.729,0.194569
643.229,0.200179
643.729,0.20585
644.229,0.21158
644.729,0.217362
645.229,0.223195
645.729,0.229072
646.229,0.234989
646.729,0.240942
647.229,0.246926
647.729,0.252935
648.229,0.258964
648.729,0.265008
649.229,0.271061
649.729,0.277117
650.229,0.283171
650.729,0.289216
651.229,0.295247
651.729,0.301256
652.229,0.307239
652.729,0.313187
653.229,0.319096
653.729,0.324957
654.229,0.330765
654.729,0.336514
655.229,0.342195
655.729,0.347803
656.229,0.353331
656.729,0.358773
657.229,0.36412
657.729,0.369368
658.229,0.374509
658.729,0.379536
659.229,0.384444
659.729,0.389226
660.229,0.393876
660.729,0.398387
661.229,0.402754
661.729,0.40697
662.229,0.411031
662.729,0.41493
663.229,0.418662
663.729,0.422222
664.229,0.425605
664.729,0.428807
665.229,0.431822
665.729,0.434647
666.229,0.437278
666.729,0.43971
667.229,0.441941
667.729,0.443966
668.229,0.445784
668.729,0.447392
669.229,0.448787
669.729,0.449967
670.229,0.450931
670.729,0.451677
671.229,0.452204
671.729,0.452512
672.229,0.452599
672.729,0.452466
673.229,0.452113
673.729,0.45154
674.229,0.450748
674.729,0.449739
675.229,0.448514
675.729,0.447074
676.229,0.445423
676.729,0.443561
677.229,0.441492
677.729,0.439219
678.229,0.436745
678.729,0.434074
679.229,0.431209
679.729,0.428154
680.229,0.424915
680.729,0.421494
681.229,0.417898
681.729,0.41413
682.229,0.410197
682.729,0.406104
683.229,0.401855
683.729,0.397458
684.229,0.392918
684.729,0.38824
685.229,0.383431
685.729,0.378498
686.229,0.373446
686.729,0.368282
687.229,0.363013
687.729,0.357645
688.229,0.352186
688.729,0.34664
689.229,0.341016
689.729,0.33532
690.229,0.329559
690.729,0.323739
691.229,0.317867
691.729,0.31195
692.229,0.305994
692.729,0.300005
693.229,0.293991
693.729,0.287957
694.229,0.281909
694.729,0.275854
695.229,0.269798
695.729,0.263747
696.229,0.257705
696.729,0.25168
697.229,0.245676
697.729,0.239698
698.229,0.233752
698.729,0.227843
699.229,0.221974
699.729,0.216152
700.229,0.21038
700.729,0.204663
701.229,0.199004
701.729,0.193407
702.229,0.187876
702.729,0.182415
703.229,0.177026
703.729,0.171713
704.229,0.166478
704.729,0.161324
705.229,0.156254
705.729,0.151269
706.229,0.146372
706.729,0.141565
707.229,0.136849
707.729,0.132226
708.229,0.127697
708.729,0.123263
709.229,0.118924
709.729,0.114683
710.229,0.110539
710.729,0.106493
711.229,0.102546
711.729,0.0986963
712.229,0.0949451
712.729,0.091292
713.229,0.0877368
713.729,0.084279
714.229,0.080918
714.729,0.0776533
715.229,0.0744841
715.729,0.0714094
716.229,0.0684283
716.729,0.0655398
717.229,0.0627426
717.729,0.0600356
718.229,0.0574174
718.729,0.0548867
719.229,0.052442
719.729,0.0500818
720.229,0.0478046
720.729,0.0456087
721.229,0.0434925
721.729,0.0414543
722.229,0.0394923
722.729,0.037605
723.229,0.0357904
723.729,0.0340468
724.229,0.0323723
724.729,0.0307653
725.229,0.0292237
725.729,0.027746
726.229,0.0263301
726.729,0.0249743
727.229,0.0236768
727.729,0.0224358
728.229,0.0212495
728.729,0.0201161
729.229,0.0190339
729.729,0.0180012
730.229,0.0170162
730.729,0.0160773
731.229,0.0151828
731.729,0.014331
732.229,0.0135205
732.729,0.0127496
733.229,0.0120169
733.729,0.0113207
734.229,0.0106596
734.729,0.0100323
735.229,0.00943732
735.729,0.00887329
736.229,0.00833891
736.729,0.0078329
737.229,0.00735401
737.729,0.00690104
738.229,0.00647282
738.729,0.00606822
739.229,0.00568614
739.729,0.00532552
740.229,0.00498535
740.729,0.00466463
741.229,0.00436242
741.729,0.00407781
742.229,0.00380991
742.729,0.00355788
743.229,0.0033209
743.729,0.0030982
744.229,0.00288903
744.729,0.00269267
745.229,0.00250843
745.729,0.00233566
746.229,0.00217373
746.729,0.00202205
747.229,0.00188003
747.729,0.00174714
748.229,0.00162285
748.729,0.00150667
749.229,0.00139813
749.729,0.00129677
750.229,0.00120218
750.729,0.00111394
751.229,0.00103168
751.729,0.000955028
752.229,0.000883642
752.729,0.000817193
753.229,0.000755373
753.729,0.00069789
754.229,0.000644468
754.729,0.000594845
755.229,0.000548776
755.629,0.000514323

File: curve_2_fit.dat
609.729,1.37045e-11
610.229,1.82838e-11
610.729,2.43524e-11
611.229,3.2381e-11
611.729,4.29847e-11
612.229,5.69653e-11
612.729,7.5367e-11
613.229,9.95464e-11
613.729,1.31263e-10
614.229,1.72797e-10
614.729,2.27091e-10
615.229,2.97948e-10
615.729,3.90259e-10
616.229,5.10316e-10
616.729,6.66193e-10
617.229,8.68229e-10
617.729,1.12965e-09
618.229,1.46732e-09
618.729,1.90274e-09
619.229,2.46325e-09
619.729,3.18354e-09
620.229,4.10759e-09
620.729,5.291e-09
621.229,6.80396e-09
621.729,8.73493e-09
622.229,1.11952e-08
622.729,1.43244e-08
623.229,1.82977e-08
623.729,2.33339e-08
624.229,2.97067e-08
624.729,3.77568e-08
625.229,4.79081e-08
625.729,6.06871e-08
626.229,7.67464e-08
626.729,9.68931e-08
627.229,1.22124e-07
627.729,1.53668e-07
628.229,1.93037e-07
628.729,2.42087e-07
629.229,3.03092e-07
629.729,3.78837e-07
630.229,4.72719e-07
630.729,5.88882e-07
631.229,7.32364e-07
631.729,9.09284e-07
632.229,1.12706e-06
632.729,1.39465e-06
633.229,1.7229e-06
633.729,2.12484e-06
634.229,2.61618e-06
634.729,3.21576e-06
635.229,3.94613e-06
635.729,4.83431e-06
636.229,5.91249e-06
636.729,7.21905e-06
637.229,8.79962e-06
637.729,1.07083e-05
638.229,1.30092e-05
638.729,1.57782e-05
639.229,1.91045e-05
639.729,2.30934e-05
640.229,2.78685e-05
640.729,3.35748e-05
641.229,4.03819e-05
641.729,4.8488e-05
642.229,5.81239e-05
642.729,6.95584e-05
643.229,8.31033e-05
643.729,9.91198e-05
644.229,0.000118026
644.729,0.000140303
645.229,0.000166506
645.729,0.000197272
646.229,0.000233333
646.729,0.000275525
647.229,0.000324803
647.729,0.000382254
648.229,0.000449115
648.729,0.00052679
649.229,0.000616865
649.729,0.000721136
650.229,0.000841624
650.729,0.000980601
651.229,0.00114062
651.729,0.00132453
652.229,0.00153553
652.729,0.00177716
653.229,0.00205339
653.729,0.00236858
654.229,0.00272758
654.729,0.00313576
655.229,0.00359899
655.729,0.00412375
656.229,0.00471713
656.729,0.00538688
657.229,0.00614144
657.729,0.00699
658.229,0.0079425
658.729,0.00900973
659.229,0.0102033
659.729,0.0115356
660.229,0.0130202
660.729,0.0146712
661.229,0.016504
661.729,0.0185347
662.229,0.0207805
662.729,0.0232595
663.229,0.0259907
663.729,0.0289941
664.229,0.0322905
664.729,0.0359016
665.229,0.0398498
665.729,0.0441584
666.229,0.048851
666.729,0.053952
667.229,0.059486
667.729,0.0654781
668.229,0.0719534
668.729,0.078937
669.229,0.0864536
669.729,0.0945278
670.229,0.103183
670.729,0.112443
671.229,0.122329
671.729,0.132863
672.229,0.144061
672.729,0.155943
673.229,0.168523
673.729,0.181813
674.229,0.195824
674.729,0.210561
675.229,0.22603
675.729,0.24223
676.229,0.259157
676.729,0.276803
677.229,0.295157
677.729,0.314203
678.229,0.333918
678.729,0.354277
679.229,0.37525
679.729,0.3968
680.229,0.418887
680.729,0.441464
681.229,0.464481
681.729,0.487881
682.229,0.511603
682.729,0.535583
683.229,0.55975
683.729,0.58403
684.229,0.608345
684.729,0.632614
685.229,0.656751
685.729,0.68067
686.229,0.704281
686.729,0.727494
687.229,0.750217
687.729,0.772356
688.229,0.79382
688.729,0.814518
689.229,0.834359
689.729,0.853254
690.229,0.87112
690.729,0.887874
691.229,0.903438
691.729,0.917739
692.229,0.930709
692.729,0.942284
693.229,0.95241
693.729,0.961036
694.229,0.96812
694.729,0.973626
695.229,0.977528
695.729,0.979805
696.229,0.980447
696.729,0.97945
697.229,0.976819
697.729,0.972567
698.229,0.966716
698.729,0.959295
699.229,0.95034
699.729,0.939895
700.229,0.928012
700.729,0.914749
701.229,0.900168
701.729,0.884339
702.229,0.867338
702.729,0.849241
703.229,0.830133
703.729,0.810099
704.229,0.789228
704.729,0.767609
705.229,0.745336
705.729,0.722499
706.229,0.699192
706.729,0.675506
707.229,0.651532
707.729,0.627359
708.229,0.603073
708.729,0.578759
709.229,0.554497
709.729,0.530365
710.229,0.506435
710.729,0.482777
711.229,0.459455
711.729,0.436529
712.229,0.414054
712.729,0.39208
713.229,0.370652
713.729,0.349809
714.229,0.329587
714.729,0.310015
715.229,0.291118
715.729,0.272916
716.229,0.255425
716.729,0.238655
717.229,0.222613
717.729,0.207303
718.229,0.192724
718.729,0.17887
719.229,0.165735
719.729,0.153308
720.229,0.141575
720.729,0.130522
721.229,0.120131
721.729,0.110383
722.229,0.101256
722.729,0.0927283
723.229,0.084777
723.729,0.0773781
724.229,0.0705069
724.729,0.0641385
725.229,0.0582479
725.729,0.0528098
726.229,0.0477995
726.729,0.0431922
727.229,0.0389638
727.729,0.0350906
728.229,0.0315497
728.729,0.0283186
729.229,0.025376
729.729,0.0227011
730.229,0.0202743
730.729,0.0180767
731.229,0.0160903
731.729,0.0142983
732.229,0.0126846
732.729,0.0112342
733.229,0.0099331
733.729,0.00876797
734.229,0.00772658
734.729,0.00679751
735.229,0.00597015
735.729,0.00523474
736.229,0.00458224
736.729,0.00400438
737.229,0.00349354
737.729,0.00304278
738.229,0.00264575
738.729,0.00229668
739.229,0.00199033
739.729,0.00172197
740.229,0.0014873
740.729,0.00128246
741.229,0.00110399
741.729,0.000948768
742.229,0.000814007
742.729,0.00069722
743.229,0.000596191
743.729,0.00050895
744.229,0.000433748
744.729,0.000369041
745.229,0.000313462
745.729,0.000265809
746.229,0.000225023
746.729,0.000190177
747.229,0.000160459
747.729,0.000135159
748.229,0.000113657
748.729,9.54164e-05
749.229,7.99693e-05
749.729,6.6911e-05
750.229,5.58914e-05
750.729,4.66087e-05
751.229,3.88027e-05
751.729,3.22501e-05
752.229,2.67592e-05
752.729,2.21662e-05
753.229,1.83308e-05
753.729,1.51337e-05
754.229,1.24733e-05
754.729,1.02635e-05
755.229,8.431e-06
755.629,7.19489e-06

File: curve_total_fit.dat
609.729,0.0383713
610.229,0.0390056
610.729,0.0396738
611.229,0.0403775
611.729,0.0411181
612.229,0.0418971
612.729,0.0427161
613.229,0.0435766
613.729,0.0444802
614.229,0.0454286
614.729,0.0464234
615.229,0.0474664
615.729,0.0485591
616.229,0.0497034
616.729,0.0509009
617.229,0.0521536
617.729,0.0534631
618.229,0.0548312
618.729,0.0562599
619.229,0.0577508
619.729,0.0593058
620.229,0.0609268
620.729,0.0626155
621.229,0.0643738
621.729,0.0662034
622.229,0.0681062
622.729,0.0700839
623.229,0.0721382
623.729,0.0742709
624.229,0.0764836
624.729,0.0787781
625.229,0.0811558
625.729,0.0836183
626.229,0.0861671
626.729,0.0888037
627.229,0.0915295
627.729,0.0943456
628.229,0.0972534
628.729,0.100254
629.229,0.103348
629.729,0.106537
630.229,0.109822
630.729,0.113204
631.229,0.116682
631.729,0.120258
632.229,0.123931
632.729,0.127703
633.229,0.131573
633.729,0.135542
634.229,0.139609
634.729,0.143774
635.229,0.148036
635.729,0.152395
636.229,0.15685
636.729,0.1614
637.229,0.166045
637.729,0.170782
638.229,0.17561
638.729,0.180528
639.229,0.185534
639.729,0.190626
640.229,0.195802
640.729,0.201059
641.229,0.206395
641.729,0.211807
642.229,0.217293
642.729,0.222849
643.229,0.228473
643.729,0.23416
644.229,0.239908
644.729,0.245714
645.229,0.251572
645.729,0.25748
646.229,0.263433
646.729,0.269429
647.229,0.275461
647.729,0.281528
648.229,0.287624
648.729,0.293746
649.229,0.299889
649.729,0.306049
650.229,0.312224
650.729,0.318408
651.229,0.324598
651.729,0.330792
652.229,0.336985
652.729,0.343175
653.229,0.34936
653.729,0.355537
654.229,0.361704
654.729,0.36786
655.229,0.374005
655.729,0.380138
656.229,0.38626
656.729,0.39237
657.229,0.398473
657.729,0.404569
658.229,0.410662
658.729,0.416757
659.229,0.422859
659.729,0.428973
660.229,0.435107
660.729,0.441269
661.229,0.447469
661.729,0.453716
662.229,0.460022
662.729,0.4664
663.229,0.472864
663.729,0.479427
664.229,0.486107
664.729,0.492919
665.229,0.499883
665.729,0.507016
666.229,0.514339
666.729,0.521873
667.229,0.529637
667.729,0.537655
668.229,0.545949
668.729,0.55454
669.229,0.563452
669.729,0.572706
670.229,0.582326
670.729,0.592331
671.229,0.602745
671.729,0.613585
672.229,0.624871
672.729,0.63662
673.229,0.648846
673.729,0.661564
674.229,0.674783
674.729,0.688512
675.229,0.702755
675.729,0.717515
676.229,0.73279
676.729,0.748575
677.229,0.764861
677.729,0.781633
678.229,0.798874
678.729,0.816562
679.229,0.83467
679.729,0.853165
680.229,0.872012
680.729,0.891169
681.229,0.910589
681.729,0.930222
682.229,0.950012
682.729,0.969898
683.229,0.989817
683.729,1.0097
684.229,1.02947
684.729,1.04906
685.229,1.06839
685.729,1.08738
686.229,1.10594
686.729,1.12399
687.229,1.14144
687.729,1.15821
688.229,1.17422
688.729,1.18937
689.229,1.20359
689.729,1.21679
690.229,1.22889
690.729,1.23982
691.229,1.24952
691.729,1.2579
692.229,1.26491
692.729,1.2705
693.229,1.27461
693.729,1.2772
694.229,1.27824
694.729,1.27769
695.229,1.27554
695.729,1.27176
696.229,1.26636
696.729,1.25934
697.229,1.25071
697.729,1.24048
698.229,1.22868
698.729,1.21535
699.229,1.20053
699.729,1.18426
700.229,1.1666
700.729,1.14762
701.229,1.12738
701.729,1.10596
702.229,1.08342
702.729,1.05987
703.229,1.03537
703.729,1.01002
704.229,0.983917
704.729,0.957144
705.229,0.9298
705.729,0.901979
706.229,0.873775
706.729,0.845282
707.229,0.816592
707.729,0.787796
708.229,0.758981
708.729,0.730232
709.229,0.701632
709.729,0.673259
710.229,0.645185
710.729,0.617481
711.229,0.590211
711.729,0.563436
712.229,0.53721
712.729,0.511583
713.229,0.486599
713.729,0.462299
714.229,0.438716
714.729,0.415879
715.229,0.393813
715.729,0.372536
716.229,0.352064
716.729,0.332405
717.229,0.313567
717.729,0.29555
718.229,0.278352
718.729,0.261968
719.229,0.246388
719.729,0.2316
720.229,0.217591
720.729,0.204342
721.229,0.191835
721.729,0.180048
722.229,0.168959
722.729,0.158544
723.229,0.148778
723.729,0.139636
724.229,0.13109
724.729,0.123115
725.229,0.115683
725.729,0.108767
726.229,0.10234
726.729,0.0963774
727.229,0.0908515
727.729,0.0857373
728.229,0.0810101
728.729,0.0766456
729.229,0.0726208
729.729,0.0689132
730.229,0.0655014
730.729,0.0623648
731.229,0.059484
731.729,0.0568402
732.229,0.054416
732.729,0.0521948
733.229,0.0501609
733.729,0.0482996
734.229,0.0465971
734.729,0.0450407
735.229,0.0436184
735.729,0.0423189
736.229,0.0411321
736.729,0.0400482
737.229,0.0390585
737.729,0.0381547
738.229,0.0373295
738.729,0.0365758
739.229,0.0358874
739.729,0.0352584
740.229,0.0346835
740.729,0.034158
741.229,0.0336773
741.729,0.0332375
742.229,0.0328348
742.729,0.032466
743.229,0.032128
743.729,0.0318181
744.229,0.0315337
744.729,0.0312726
745.229,0.0310328
745.729,0.0308124
746.229,0.0306097
746.729,0.0304231
747.229,0.0302514
747.729,0.0300932
748.229,0.0299474
748.729,0.029813
749.229,0.029689
749.729,0.0295746
750.229,0.029469
750.729,0.0293715
751.229,0.0292814
751.729,0.0291982
752.229,0.0291213
752.729,0.0290503
753.229,0.0289846
753.729,0.0289239
754.229,0.0288678
754.729,0.028816
755.229,0.0287681
755.629,0.0287324

File: raman_peaks.csv
605.319, 0.0236957
609.729, 0.0170707
618.647, 0.0493316
622.507, 0.06171
628.589, 0.091637
634.709, 0.150221
639.69, 0.198346
645.958, 0.250597
650.529, 0.31013
656.671, 0.377984
661.124, 0.45607
665.672, 0.537942
670.834, 0.619771
675.954, 0.739535
680.347, 0.859349
683.202, 0.976107
687.606, 1.1328
692.758, 1.27714
697.556, 1.27067
702.464, 1.09174
704.926, 0.951223
707.176, 0.80693
709.432, 0.65505
712.328, 0.509447
716.636, 0.341622
720.215, 0.234536
725.192, 0.159054
728.726, 0.110042
735.78, 0.063197
742.114, 0.0206159
745.132, 0.00776471
750.433, 0.00740035
755.663, 0.00704091