Folder: semiconductor_data/ingan/davydov_2003/in36

Note: ingan/davydov_2003/in36/summary.md
## Raman

#### Curve 1 (Disordered Peak)
**Type**: Skewed Gaussian\
**amplitude:** 0.4\
**center** 680.0\
**σ** 32.1
**σ2** 18.1


#### Curve 2 (Ordered Peak)
**Type**:Skewed Gaussian\
**amplitude** 0.7\
**center** 704.0\
**σ** 15.0\
**σ2** 12.0


## S<sup>2</sup>
**Disordered Curve Integrated Area:** 25.172963\
**Ordered Curve Integrated Area:** 24.075141\
**S<sup>2</sup>:** 0.4889


## Band gap
1.8883 at 77K
1.7383 at 300K (obtained by reducing band gap by 0.15 eV to account for thermal effects)


Raman spectrum from Fig. 1b and band gap from Fig. 1a from [1]


[1] V. Y. Davydov, A. A. Klochikhin, V. V. Emtsev, A. N. Smirnov, I. N. Goncharuk, A. V. Sakharov, D. A. Kurdyukov, M. V. Baidakova, V. A. Vekshin, S. V. Ivanov, J. Aderhold, J. Graul, A. Hashimoto, and A. Yamamoto, Physica Status Solidi (b) 240, 425 (2003).
https://doi.org/10.1002/pssb.200303448

Note: README.md
# semiconductor_data
Data repository for semiconductor data

File: raman_peaks.csv
599.807, 2.84214
606.657, 2.86094
613.72, 2.87647
620.784, 2.87263
627.848, 2.90829
634.912, 2.92979
641.975, 2.98819
649.039, 3.04659
655.461, 3.09242
661.882, 3.15888
669.214, 3.23437
675.426, 3.30995
681.504, 3.40679
686.235, 3.52415
690.458, 3.62943
695.917, 3.71846
702.98, 3.69859
708.439, 3.57746
711.328, 3.46754
713.622, 3.36766
715.824, 3.27022
718.499, 3.17806
721.603, 3.09535
723.744, 3.00468
727.704, 2.92459
734.446, 2.8592
741.51, 2.811
748.574, 2.80678
755.637, 2.80666
762.701, 2.80579
769.765, 2.7889
776.186, 2.79882