Folder: semiconductor_data/ingan/davydov_2003/in85

Note: ingan/davydov_2003/in85/summary.md
## Raman

#### Curve 1 (Disordered Peak)
**Type**: Skewed Loretenzian\
**amplitude:** 0.3\
**center** 506.1\
**σ** 17.1
**σ2** 15.3


#### Curve 2 (Ordered Peak)
**Type**:Skewed Gaussian\
**amplitude** 0.1\
**center** 585.0\
**σ** 11.9\
**σ2** 15.0


## S<sup>2</sup>
**Disordered Curve Integrated Area:** 6.285422\
**Ordered Curve Integrated Area:** 3.406247\
**S<sup>2</sup>:** 0.3515

## Band gap
1.2077 at 77K
1.0577 at 300K (obtained by reducing band gap by 0.15 eV to account for thermal effects)


Raman spectrum from Fig. 1b and band gap from Fig. 1a from [1]


[1] V. Y. Davydov, A. A. Klochikhin, V. V. Emtsev, A. N. Smirnov, I. N. Goncharuk, A. V. Sakharov, D. A. Kurdyukov, M. V. Baidakova, V. A. Vekshin, S. V. Ivanov, J. Aderhold, J. Graul, A. Hashimoto, and A. Yamamoto, Physica Status Solidi (b) 240, 425 (2003).
https://doi.org/10.1002/pssb.200303448

Note: README.md
# semiconductor_data
Data repository for semiconductor data

File: raman_peaks.csv
482.078, 0.555548
489.142, 0.567357
496.063, 0.648035
500.315, 0.726135
504.507, 0.772986
509.324, 0.751177
514.507, 0.683321
519.44, 0.569193
526.387, 0.552669
533.796, 0.551445
540.514, 0.57256
547.578, 0.559395
554.642, 0.559649
561.706, 0.556176
568.769, 0.588113
575.833, 0.633096
581.934, 0.708468
588.034, 0.829221
593.956, 0.898929
597.809, 0.988359
599.155, 1.06416
603.981, 1.12081
609.939, 1.13002
615.968, 1.04149
622.069, 0.962353
628.169, 0.854148
634.27, 0.760748
641.333, 0.696581
647.37, 0.615392
654.176, 0.57963
661.24, 0.582121
668.304, 0.587593
675.368, 0.564738
681.468, 0.565982