Folder: semiconductor_data/ingan/guo_2010/in09

Note: ingan/guo_2010/in09/summary.md
## Raman

#### Curve 1 (Disordered Peak)
**Type**: Skewed Loretenzian\
**amplitude:** 0.5\
**center** 568.0\
**σ** 63.5
**σ2** 85.9


#### Curve 2 (Ordered Peak)
**Type**:Gaussian\
**amplitude** 0.2\
**center** 665.0\
**σ** 35.7\


## S<sup>2</sup>
**Disordered Curve Integrated Area:** 60.491404\
**Ordered Curve Integrated Area:** 15.771630\
**S<sup>2</sup>:** 0.2068


## Band gap
2.9976 eV


Raman spectrum from Fig. 6 and band gap from Fig. 8 of [1]


[1]Q. Guo, Y. Kusunoki, Y. Ding, T. Tanaka, and M. Nishio, Jpn. J. Appl. Phys. 49, 081203 (2010).
https://doi.org/10.1143/JJAP.49.081203

Note: README.md
# semiconductor_data
Data repository for semiconductor data

File: raman_peaks.csv
477.597, 0.144938
484.186, 0.148338
490.775, 0.152544
497.364, 0.172066
503.953, 0.188363
510.543, 0.219977
517.132, 0.258845
521.612, 0.290403
527.015, 0.338712
532.945, 0.389856
536.24, 0.432668
540.852, 0.47444
544.806, 0.518881
549.089, 0.555942
553.372, 0.6014
559.302, 0.650126
565.891, 0.678515
572.48, 0.683527
579.069, 0.653876
584.999, 0.619371
590.93, 0.583253
597.519, 0.556827
604.108, 0.536043
610.258, 0.520622
617.286, 0.500119
623.875, 0.493845
630.464, 0.491602
637.053, 0.493389
643.642, 0.491146
650.231, 0.500995
656.821, 0.521323
662.751, 0.552919
668.681, 0.584515
675.27, 0.626608
680.541, 0.660874
685.154, 0.703653
689.766, 0.7377
694.51, 0.779475
697.673, 0.826583
701.626, 0.871024
704.592, 0.914768
708.435, 0.970626
710.192, 1.01367
713.487, 1.05003
716.781, 1.09244
720.867, 1.14776
724.029, 1.19003
729.301, 1.20025
734.572, 1.18091
737.647, 1.13666
739.843, 1.10044
741.161, 1.06286
743.797, 1.02531
745.115, 0.979663
747.75, 0.921961
749.947, 0.858874
752.143, 0.814596
754.339, 0.773005
756.975, 0.721686
759.611, 0.661297
762.246, 0.61065
764.443, 0.574433
768.176, 0.523478
772.789, 0.476846
779.378, 0.428655
785.967, 0.403841
792.556, 0.382251
799.145, 0.357437
805.734, 0.34552
812.323, 0.320706
818.912, 0.297504
825.502, 0.275914
832.091, 0.2511
838.68, 0.235153