Folder: semiconductor_data/ingan/guo_2010/in100

Note: ingan/guo_2010/in100/summary.md
## Raman

#### Curve 1 (Disordered Peak)
**Type**: Skewed Loretenzian\
**amplitude:** 0.3\
**center** 489.5\
**σ** 58.6
**σ2** 30.8


#### Curve 2 (Ordered Peak)
**Type**:Gaussian\
**amplitude** 0.1\
**center** 526.6\
**σ** 18.2\


## S<sup>2</sup>
**Disordered Curve Integrated Area:** 22.840624\
**Ordered Curve Integrated Area:** 4.774619\
**S<sup>2</sup>:** 0.1729


Since, this is the limiting case of InN,
to determine the S<sup>2</sup> value for the binary material,
the Potts model S<sup>2</sup> value should be multiplied by 4.
**S<sup>2</sup><sub>binary</sub>:** 0.6916



## Band gap
1.54 eV



Raman spectrum from Fig. 6 and band gap from Fig. 8 of [1]


[1]Q. Guo, Y. Kusunoki, Y. Ding, T. Tanaka, and M. Nishio, Jpn. J. Appl. Phys. 49, 081203 (2010).
https://doi.org/10.1143/JJAP.49.081203

Note: README.md
# semiconductor_data
Data repository for semiconductor data

File: raman_peaks.csv
432.132, 5.90878
440.039, 5.9325
448.417, 5.94587
455.853, 5.97189
462.442, 6.00901
468.372, 6.05028
473.644, 6.10443
479.574, 6.15658
486.163, 6.20647
492.093, 6.20998
496.705, 6.16308
503.295, 6.11489
511.201, 6.08554
519.108, 6.07702
527.015, 6.09335
534.922, 6.10969
542.829, 6.13072
550.077, 6.1774
556.007, 6.22713
560.62, 6.27361
561.938, 6.32201
565.891, 6.36779
566.55, 6.41483
570.503, 6.47137
573.798, 6.53997
576.434, 6.60588
579.069, 6.66426
584.011, 6.7191
588.953, 6.69959
590.93, 6.64523
593.565, 6.58081
595.542, 6.51637
597.519, 6.46134
597.958, 6.40223
600.154, 6.34922
602.131, 6.30293
603.449, 6.23746
605.865, 6.18479
608.061, 6.14052
611.795, 6.07546
614.65, 6.02112
620.185, 5.97693
627.17, 5.93614
635.077, 5.89739
642.983, 5.86266
649.573, 5.84571