Folder: semiconductor_data/ingan/guo_2010/in70

Note: ingan/guo_2010/in70/summary.md
## Raman

#### Curve 1 (Disordered Peak)
**Type**: Skewed Loretenzian\
**amplitude:** 0.3\
**center** 506.6\
**σ** 77.3
**σ2** 100.0


#### Curve 2 (Ordered Peak)
**Type**:Gaussian\
**amplitude** 0.2\
**center** 600.0\
**σ** 40.0\


## S<sup>2</sup>
**Disordered Curve Integrated Area:** 38.804700\
**Ordered Curve Integrated Area:** 20.253556\
**S<sup>2</sup>:** 0.3429


## Band gap
1.93 eV


Raman spectrum from Fig. 6 and band gap from Fig. 8 of [1]


[1]Q. Guo, Y. Kusunoki, Y. Ding, T. Tanaka, and M. Nishio, Jpn. J. Appl. Phys. 49, 081203 (2010).
https://doi.org/10.1143/JJAP.49.081203

Note: README.md
# semiconductor_data
Data repository for semiconductor data

File: raman_peaks.csv
403.14, 3.03355
411.047, 3.02973
418.954, 3.04136
426.861, 3.04358
434.768, 3.05387
442.675, 3.06751
450.676, 3.08999
458.489, 3.12167
466.396, 3.16219
473.644, 3.20161
480.892, 3.23378
488.799, 3.26624
496.705, 3.29466
504.612, 3.32309
512.519, 3.35017
520.426, 3.37725
528.333, 3.39761
536.24, 3.43208
544.147, 3.47125
552.054, 3.51983
558.643, 3.56401
563.255, 3.59872
567.868, 3.64789
573.534, 3.69439
579.069, 3.74048
584.34, 3.79383
590.93, 3.84348
598.477, 3.87716
606.158, 3.91649
613.991, 3.89968
618.604, 3.87374
624.139, 3.85373
629.146, 3.8057
633.759, 3.75578
638.898, 3.69935
643.642, 3.63781
647.596, 3.59358
651.549, 3.52852
656.821, 3.47492
659.017, 3.43199
662.751, 3.38238
667.363, 3.3301
671.976, 3.27984
679.224, 3.21595
685.154, 3.16935
691.743, 3.13124
699.65, 3.10525
707.557, 3.08178
715.464, 3.08081