Folder: semiconductor_data/ingan/guo_2010/in83

Note: ingan/guo_2010/in83/summary.md
## Raman

#### Curve 1 (Disordered Peak)
**Type**: Skewed Loretenzian\
**amplitude:** 0.3\
**center** 489.5\
**σ** 60.8
**σ2** 100.0


#### Curve 2 (Ordered Peak)
**Type**:Gaussian\
**amplitude** 0.2\
**center** 549.3\
**σ** 24.5\


## S<sup>2</sup>
**Disordered Curve Integrated Area:** 34.231771\
**Ordered Curve Integrated Area:** 14.325838\
**S<sup>2</sup>:** 0.2950


## Band gap
1.8277 eV


Raman spectrum from Fig. 6 and band gap from Fig. 8 of [1]


[1]Q. Guo, Y. Kusunoki, Y. Ding, T. Tanaka, and M. Nishio, Jpn. J. Appl. Phys. 49, 081203 (2010).
https://doi.org/10.1143/JJAP.49.081203

Note: README.md
# semiconductor_data
Data repository for semiconductor data

File: raman_peaks.csv
393.915, 4.68247
401.54, 4.6773
407.489, 4.67746
415.001, 4.69042
422.908, 4.69131
430.814, 4.70294
438.721, 4.72128
447.287, 4.74905
454.535, 4.78351
462.442, 4.81865
470.255, 4.85475
477.597, 4.90584
485.316, 4.93173
492.47, 4.95495
500.659, 4.95805
508.566, 4.9596
516.802, 4.96301
524.215, 4.98286
532.287, 5.01733
540.194, 5.04912
547.442, 5.08746
553.503, 5.13116
558.314, 5.17824
562.596, 5.2237
567.428, 5.27757
571.821, 5.33579
576.81, 5.39825
583.462, 5.44795
591.094, 5.47183
597.519, 5.44026
599.715, 5.39598
603.229, 5.34502
606.085, 5.29841
609.379, 5.23401
612.674, 5.18472
616.495, 5.11993
621.239, 5.06202
624.314, 5.01373
627.829, 4.9711
633.1, 4.91078
639.162, 4.85049
645.619, 4.80471
648.914, 4.7739
656.068, 4.73647
664.069, 4.71048
671.976, 4.68584
679.882, 4.6753
687.789, 4.66409
695.696, 4.65154
703.603, 4.64906
711.51, 4.65532
719.417, 4.65418
727.324, 4.66111
734.836, 4.66843