Folder: semiconductor_data/graphene/cuong_2010/crg

Note: graphene/cuong_2010/crg/summary.md
## Raman

#### Curve 1 (Disordered Peak)
**Type**: Skewed Loretenzian\
**amplitude:** 1.0\
**center** 1323.3\
**σ** 100.0
**σ2** 100.0


#### Curve 2 (Ordered Peak)
**Type**:Skewed Gaussian\
**amplitude** 0.7\
**center** 1599.1\
**σ** 41.1\
**σ2** 21.9


## S<sup>2</sup>
**Disordered Curve Integrated Area:** 148.757452\
**Ordered Curve Integrated Area:** 53.700740\
**S<sup>2</sup>:** 0.2652

## Band gap
2.25 eV


Raman spectrum from Fig. 3a and band gap from Fig. 3b of [1]

[1] T. V. Cuong, V. H. Pham, Q. T. Tran, S. H. Hahn, J. S. Chung, E. W. Shin, and E. J. Kim, Materials Letters 64, 399 (2010).
https://doi.org/10.1016/j.matlet.2009.11.029

Note: README.md
# semiconductor_data
Data repository for semiconductor data

File: raman_peaks.csv
1104.32, 1.10492
1148.34, 1.13472
1192.26, 1.18568
1229.96, 1.28897
1253.53, 1.41473
1269.02, 1.55424
1282.46, 1.70599
1293.88, 1.85926
1321.19, 2.05273
1351.9, 1.89944
1368.73, 1.70345
1385.38, 1.55035
1408.04, 1.40298
1444.52, 1.31033
1488.64, 1.31116
1526.47, 1.3827
1549.99, 1.52072
1563.44, 1.66889
1590.87, 1.83321
1617.07, 1.63449
1624.37, 1.48134
1632.96, 1.33892
1661.81, 1.14732
1706.11, 1.10525
1744.26, 1.09524