Folder: semiconductor_data/graphene/cuong_2010/go

Note: graphene/cuong_2010/go/summary.md
## Raman

#### Curve 1 (Disordered Peak)
**Type**: Skewed Loretenzian\
**amplitude:** 0.9\
**center** 1330.8\
**σ** 96.2
**σ2** 92.2


#### Curve 2 (Ordered Peak)
**Type**:Skewed Loretenzian\
**amplitude** 0.8\
**center** 1607.1\
**σ** 82.9\
**σ2** 43.8


## S<sup>2</sup>
**Disordered Curve Integrated Area:** 130.087152\
**Ordered Curve Integrated Area:** 78.892913\
**S<sup>2</sup>:** 0.3775


## Band gap
2.06 eV


Raman spectrum from Fig. 3a and band gap from Fig. 3b of [1]

[1] T. V. Cuong, V. H. Pham, Q. T. Tran, S. H. Hahn, J. S. Chung, E. W. Shin, and E. J. Kim, Materials Letters 64, 399 (2010).
https://doi.org/10.1016/j.matlet.2009.11.029

Note: README.md
# semiconductor_data
Data repository for semiconductor data

File: raman_peaks.csv
1088.63, 0.0925752
1113.91, 0.1047
1140.21, 0.121365
1161, 0.136109
1188.21, 0.154977
1206.85, 0.18388
1221.47, 0.218026
1230.27, 0.240905
1238.08, 0.273779
1249.23, 0.320947
1260.01, 0.372398
1268.47, 0.443123
1275.63, 0.494801
1282.69, 0.523865
1284.09, 0.597603
1293.84, 0.69672
1300.91, 0.801957
1308.06, 0.890294
1315.04, 0.916739
1323.21, 1.00674
1332.32, 1.02659
1347.75, 0.936836
1350.72, 0.918278
1354.07, 0.869156
1364.27, 0.774269
1374.52, 0.678402
1380.84, 0.610436
1383.07, 0.571309
1388.64, 0.554187
1395.5, 0.48055
1398.68, 0.458524
1407.23, 0.41475
1416.53, 0.387737
1425.45, 0.344346
1438.83, 0.310888
1466.05, 0.304194
1485.68, 0.306921
1510.53, 0.311147
1528.06, 0.33419
1537.35, 0.373258
1547.69, 0.431278
1554.19, 0.482267
1562.91, 0.576865
1573.94, 0.677592
1579.36, 0.735597
1588.03, 0.818083
1600.92, 0.906768
1610.59, 0.863667
1617.28, 0.833979
1620.9, 0.73594
1621.74, 0.654603
1627.32, 0.624912
1628.06, 0.537314
1633.73, 0.423189
1637.36, 0.341289
1642.19, 0.266463
1659.41, 0.196531
1684.2, 0.174665
1708.73, 0.167599
1733.27, 0.166377
1757.33, 0.152763
1773.42, 0.151656