Folder: semiconductor_data/graphene/cuong_2010/trg

Note: graphene/cuong_2010/trg/summary.md
## Raman

#### Curve 1 (Disordered Peak)
**Type**: Skewed Loretenzian\
**amplitude:** 0.8\
**center** 1334.0\
**σ** 133.0
**σ2** 137.1


#### Curve 2 (Ordered Peak)
**Type**:Skewed Loretenzian\
**amplitude** 0.6\
**center** 1601.0\
**σ** 94.0\
**σ2** 64.3


## S<sup>2</sup>
**Disordered Curve Integrated Area:** 157.072874\
**Ordered Curve Integrated Area:** 75.422123\
**S<sup>2</sup>:** 0.3244


## Band gap
2.15 eV


Raman spectrum from Fig. 3a and band gap from Fig. 3b of [1]

[1] T. V. Cuong, V. H. Pham, Q. T. Tran, S. H. Hahn, J. S. Chung, E. W. Shin, and E. J. Kim, Materials Letters 64, 399 (2010).
https://doi.org/10.1016/j.matlet.2009.11.029

Note: README.md
# semiconductor_data
Data repository for semiconductor data

File: raman_peaks.csv
1039.03, 0.265801
1084.87, 0.284464
1128.73, 0.317074
1174.28, 0.365149
1223.66, 0.455531
1256.91, 0.569101
1278.42, 0.70711
1297.89, 0.856751
1333.27, 1.0378
1365.9, 0.903738
1392.74, 0.712403
1431.46, 0.559859
1475.8, 0.508877
1519.78, 0.54647
1551.39, 0.667105
1568.86, 0.813669
1598.41, 0.950279
1625.34, 0.735926
1633.8, 0.62655
1648.58, 0.440964
1679.93, 0.326563
1725.4, 0.293693
1769.16, 0.284211
1799.68, 0.278269