Folder: semiconductor_data/insb/senthilkumar_2005/303k

Note: insb/senthilkumar_2005/303k/summary.md
## Raman

#### Curve 1 (Disordered Peak)
**Type**: Skewed Gaussian\
**amplitude:** 0.2\
**center** 191.7\
**σ** 12.0
**σ2** 12.5


#### Curve 2 (Ordered Peak)
**Type**:Skewed Gaussian\
**amplitude** 0.1\
**center** 158.8\
**σ** 14.6\
**σ2** 20.0


## S<sup>2</sup>
**Disordered Curve Integrated Area:** 4.837836\
**Ordered Curve Integrated Area:** 5.082287\
**S<sup>2</sup>:** 0.5123

## Band gap
0.148 eV

Raman spectrum from Fig. 3 and band gap Fig. 4. of [1]

[1]V. Senthilkumar, S. Venkatachalam, C. Viswanathan, S. Gopal, S. K. Narayandass, D. Mangalaraj, K. C. Wilson, and K. P. Vijayakumar, Crystal Research and Technology 40, 573 (2005).
https://doi.org/10.1002/crat.200410385

Note: README.md
# semiconductor_data
Data repository for semiconductor data

File: raman_peaks.csv
133.026, 0.0448299
135.599, 0.068081
137.752, 0.084507
140.847, 0.104396
144.114, 0.122913
145.556, 0.125873
147.26, 0.130285
150.34, 0.138621
153.534, 0.149322
156.727, 0.158657
159.919, 0.161086
163.112, 0.169131
166.305, 0.173761
169.497, 0.180212
172.69, 0.185069
175.883, 0.194784
179.078, 0.211253
182.271, 0.22203
185.463, 0.223852
188.655, 0.223852
191.846, 0.223017
194.809, 0.230882
198.962, 0.2004
201.919, 0.174396
204.495, 0.14584
207.147, 0.120742
209, 0.109105
211.23, 0.0873984
213.935, 0.0955876
215.126, 0.0608082
218.088, 0.0630282
221.278, 0.055135
223.752, 0.0536171