Folder: semiconductor_data/insb/senthilkumar_2005/373k

Note: insb/senthilkumar_2005/373k/summary.md
## Raman

#### Curve 1 (Disordered Peak)
**Type**: Skewed Loretenzian\
**amplitude:** 0.3\
**center** 189.5\
**σ** 19.8
**σ2** 34.3


#### Curve 2 (Ordered Peak)
**Type**:Skewed Gaussian\
**amplitude** 0.3\
**center** 163.7\
**σ** 15.8\
**σ2** 21.1


## S<sup>2</sup>
**Disordered Curve Integrated Area:** 13.957606\
**Ordered Curve Integrated Area:** 15.659284\
**S<sup>2</sup>:** 0.5287

## Band gap
0.142 eV

Raman spectrum from Fig. 3 and band gap Fig. 4. of [1]

[1]V. Senthilkumar, S. Venkatachalam, C. Viswanathan, S. Gopal, S. K. Narayandass, D. Mangalaraj, K. C. Wilson, and K. P. Vijayakumar, Crystal Research and Technology 40, 573 (2005).
https://doi.org/10.1002/crat.200410385

Note: README.md
# semiconductor_data
Data repository for semiconductor data

File: raman_peaks.csv
134.175, 0.136723
137.223, 0.209379
140.903, 0.225517
144.839, 0.270471
148.779, 0.337193
152.657, 0.385822
156.469, 0.447185
160.34, 0.459969
164.27, 0.469589
168.201, 0.485561
172.131, 0.496845
176.061, 0.508315
179.994, 0.536558
183.6, 0.567781
187.861, 0.598039
191.987, 0.579853
195.329, 0.532023
197.303, 0.46284
200.837, 0.394273
203.781, 0.356099
207.264, 0.328985
208.128, 0.277021
211.535, 0.261427
214.147, 0.227387
217.409, 0.210682
219.795, 0.180654
223.386, 0.175259
227.123, 0.173314
228.583, 0.132324
232.219, 0.146134
236.147, 0.144389
240.077, 0.153831
242.36, 0.155773