Folder: semiconductor_data/insb/senthilkumar_2005/473k

Note: insb/senthilkumar_2005/473k/summary.md
## Raman

#### Curve 1 (Disordered Peak)
**Type**: Skewed Loretenzian\
**amplitude:** 3.1\
**center** 190.7\
**σ** 37.6
**σ2** 50.2


#### Curve 2 (Ordered Peak)
**Type**:Skewed Gaussian\
**amplitude** 0.9\
**center** 141.4\
**σ** 4.0\
**σ2** 23.1


## S<sup>2</sup>
**Disordered Curve Integrated Area:** 201.608329\
**Ordered Curve Integrated Area:** 30.427270\
**S<sup>2</sup>:** 0.1311

## Band gap
0.3223 eV


Raman spectrum from Fig. 3 and band gap Fig. 4. of [1]

[1]V. Senthilkumar, S. Venkatachalam, C. Viswanathan, S. Gopal, S. K. Narayandass, D. Mangalaraj, K. C. Wilson, and K. P. Vijayakumar, Crystal Research and Technology 40, 573 (2005).
https://doi.org/10.1002/crat.200410385

Note: README.md
# semiconductor_data
Data repository for semiconductor data

File: raman_peaks.csv
128.725, 0.201507
130.462, 0.302847
133.061, 0.471313
135.1, 0.730451
138.198, 1.11126
139.439, 1.27658
143.394, 1.3465
147.044, 1.44091
150.826, 1.50963
155.763, 1.58762
159.617, 1.65822
162.785, 1.73548
166.64, 1.82547
170.202, 1.90234
172.555, 1.98425
173.927, 2.21419
176.127, 2.2894
176.821, 2.39522
179.332, 2.55572
180.791, 2.63377
182.445, 2.84976
184.076, 3.00085
185.849, 3.1623
187.919, 3.26406
189.749, 3.379
193.328, 3.2733
196.331, 3.06827
198.124, 2.93688
198.845, 3.03538
199.833, 2.79567
201.727, 2.69964
203.556, 2.53028
206.725, 2.32788
208.25, 2.19338
210.169, 2.0913
211.888, 1.97878
213.755, 1.76724
215.912, 1.60424
217.103, 1.54478
218.651, 1.41201
220.981, 1.23188
224.969, 1.11071
229.752, 1.01803
233.256, 0.970312
236.911, 0.908402
241.264, 0.856779
244.631, 0.809573