Folder: semiconductor_data/si/sokolov_1991/film_a

Note: si/sokolov_1991/film_a/summary.md
## Raman

#### Curve 1 (Disordered Peak)
**Type**: Skewed Gaussian\
**amplitude:** 1.0\
**center** 462.0\
**σ** 46.9
**σ2** 40.2


#### Curve 2 (Ordered Peak)
**Type**:Skewed Gaussian\
**amplitude** 0.2\
**center** 315.5\
**σ** 50.0\
**σ2** 50.0


## S<sup>2</sup>
**Disordered Curve Integrated Area:** 106.275409\
**Ordered Curve Integrated Area:** 19.802363\
**S<sup>2</sup>:** 0.1571


## Band Gap

1.56 eV

Raman spectrum from Fig. 2 and band gap from Fig. 1 of [1]

[1]A. P. Sokolov, A. P. Shebanin, O. A. Golikova, and M. M. Mezdrogina, J. Phys.: Condens. Matter 3, 9887 (1991).
https://doi.org/10.1088/0953-8984/3/49/005

Note: README.md
# semiconductor_data
Data repository for semiconductor data

File: raman_peaks.csv
234.504, 0.233978
241.577, 0.242508
247.919, 0.243305
249.793, 0.27015
256.765, 0.274193
263.908, 0.287373
269.287, 0.306529
273.777, 0.328893
277.967, 0.347577
283.946, 0.358053
290.376, 0.367023
294.354, 0.383681
300.388, 0.402011
307.471, 0.401266
313.934, 0.417183
319.379, 0.435578
326.348, 0.442504
333.314, 0.452107
339.324, 0.465667
345.335, 0.478678
352.299, 0.490821
359.274, 0.491776
363.073, 0.497501
365.053, 0.516471
371.912, 0.535226
378.306, 0.552371
382.656, 0.569979
389.848, 0.580644
394.99, 0.600975
400.358, 0.622092
404.643, 0.647759
409.147, 0.65989
413.62, 0.674626
416.135, 0.694414
418.969, 0.712991
422.116, 0.735306
427.185, 0.739933
427.84, 0.757339
431.081, 0.789312
433.769, 0.809326
435.655, 0.824406
436.338, 0.844701
440.108, 0.870416
442.879, 0.888633
445.711, 0.909617
449.084, 0.93539
452.318, 0.957114
457.691, 0.974079
464.675, 0.966865
470.404, 0.94829
474.742, 0.931625
478.479, 0.910178
481.519, 0.891973
483.814, 0.863779
485.985, 0.84152
486.443, 0.821108
488.318, 0.805214
490.379, 0.782488
493.06, 0.753191
494.667, 0.701076
494.743, 0.728634
496.77, 0.679116
497.36, 0.655065
498.647, 0.637664
499.112, 0.618503
499.612, 0.598612
501.087, 0.580767
502.301, 0.558669
503.931, 0.542041
505.819, 0.522892
506.493, 0.50492
509.048, 0.48827
509.263, 0.466479
510.836, 0.445405
512.022, 0.419097
513.772, 0.393299
515.512, 0.365897
517.864, 0.346184
519.279, 0.328307
521.297, 0.221716
521.907, 0.309462
525.035, 0.283589
527.461, 0.256214
529.521, 0.24151
530.813, 0.2195
532.48, 0.193408
534.325, 0.1652
535.062, 0.145093
538.35, 0.127908
543.198, 0.1064
546.5, 0.0830459
552.542, 0.0678549
557.532, 0.0472262
564.632, 0.0315971
571.624, 0.0167641
576.072, 0.00946325