Folder: semiconductor_data/si/sokolov_1991/film_b

Note: si/sokolov_1991/film_b/summary.md
## Raman

#### Curve 1 (Disordered Peak)
**Type**: Skewed Loretenzian\
**amplitude:** 1.0\
**center** 474.0\
**σ** 70.0
**σ2** 60.0


#### Curve 2 (Ordered Peak)
**Type**:Skewed Gaussian\
**amplitude** 0.1\
**center** 300.0\
**σ** 40.0\
**σ2** 40.0


## S<sup>2</sup>
**Disordered Curve Integrated Area:** 97.412876\
**Ordered Curve Integrated Area:** 14.037118\
**S<sup>2</sup>:** 0.1259

# Band gap
1.712 eV

Raman spectrum from Fig. 2 and band gap from Fig. 1 of [1]

[1]A. P. Sokolov, A. P. Shebanin, O. A. Golikova, and M. M. Mezdrogina, J. Phys.: Condens. Matter 3, 9887 (1991).
https://doi.org/10.1088/0953-8984/3/49/005

Note: README.md
# semiconductor_data
Data repository for semiconductor data

File: raman_peaks.csv
231.634, 0.0541293
238.599, 0.0646934
245.579, 0.061804
252.543, 0.0732605
259.054, 0.077446
262.662, 0.0998132
265.815, 0.116429
273.004, 0.115477
278.866, 0.130175
285.443, 0.147106
292.416, 0.150188
299.378, 0.164116
306.35, 0.168022
312.044, 0.181071
319.019, 0.182849
324.732, 0.178381
329.184, 0.166609
336.165, 0.162415
343.134, 0.170028
350.109, 0.170776
357.088, 0.169123
364.28, 0.179238
369.951, 0.199286
377.33, 0.218188
384.422, 0.237213
390.61, 0.25415
395.774, 0.268497
401.354, 0.289383
407.3, 0.303356
410.903, 0.32148
413.978, 0.345038
417.583, 0.369929
420.107, 0.395144
422.422, 0.411757
424.662, 0.435032
425.913, 0.451305
428.148, 0.469786
429.358, 0.490652
431.776, 0.503052
432.766, 0.52323
434.681, 0.553961
434.854, 0.540142
436.158, 0.576867
437.8, 0.601646
440.004, 0.616561
441.915, 0.640733
443.16, 0.662243
445.069, 0.683112
445.931, 0.706833
448.193, 0.726116
449.057, 0.747787
449.942, 0.767408
451.234, 0.787808
452.088, 0.812065
453.401, 0.836403
455.661, 0.857639
458.309, 0.882987
461.002, 0.910375
464.481, 0.933645
471.894, 0.969042
475.461, 0.96366
478.342, 0.938712
479.741, 0.915783
481.048, 0.892295
483.814, 0.863779
485.985, 0.84152
486.443, 0.821108
488.318, 0.805214
489.564, 0.782497
490.888, 0.753215
494.503, 0.699083
494.743, 0.728581
496.269, 0.650712
496.77, 0.67878
498.12, 0.585621
498.233, 0.629385
498.421, 0.605127
498.95, 0.569087
499.39, 0.537559
500.044, 0.520006
500.771, 0.550795
501.968, 0.500067
502.354, 0.478418
503.825, 0.458232
505.526, 0.435563
506.248, 0.413206
509.475, 0.376816
510.115, 0.395748
511.89, 0.357423
512.932, 0.33269
512.958, 0.308528
513.442, 0.287064
514.902, 0.270047
516.19, 0.252189
517.831, 0.234002
520.038, 0.213111
520.7, 0.187897
522.625, 0.166773
524.817, 0.150812
527.107, 0.127813
528.499, 0.111655
531.323, 0.0903459
535.456, 0.0723625
540.266, 0.0518398
545.946, 0.032643
550.688, 0.0203761