Folder: semiconductor_data/ingan/ager_2005/in037

Note: ingan/ager_2005/in037/summary.md
## Raman

#### Curve 1 (Disordered Peak)
**Type**: Skewed Gaussian\
**amplitude:** 0.9\
**center** 683.0\
**σ** 24.2
**σ2** 29.0


#### Curve 2 (Ordered Peak)
**Type**:Skewed Gaussian\
**amplitude** 1.9\
**center** 711.0\
**σ** 14.8\
**σ2** 9.6


## S<sup>2</sup>
**Disordered Curve Integrated Area:** 63.117303\
**Ordered Curve Integrated Area:** 58.127024\
**S<sup>2</sup>:** 0.4794


## Band gap
1.8659 eV


Raman spectrum from Fig. 2 and band gap from Fig. 1 [1]


[1]J. W. Ager, W. Walukiewicz, W. Shan, K. M. Yu, S. X. Li, E. E. Haller, H. Lu, and W. J. Schaff, Phys. Rev. B 72, 155204 (2005).
https://doi.org/10.1103/PhysRevB.72.155204

Note: README.md
# semiconductor_data
Data repository for semiconductor data

File: raman_peaks.csv
585.155, 5.06707
590.807, 5.06455
596.459, 5.08118
602.112, 5.09424
607.764, 5.10641
613.416, 5.10835
619.069, 5.13253
624.721, 5.15895
630.373, 5.19872
636.026, 5.2554
641.678, 5.34635
646.817, 5.4496
651.698, 5.55815
656.837, 5.66804
661.461, 5.77062
665.829, 5.88001
669.94, 5.99156
673.794, 6.10108
677.904, 6.22082
681.501, 6.34651
684.071, 6.44266
686.726, 6.56166
689.055, 6.68035
691.081, 6.77663
692.549, 6.88409
694.348, 7.03945
696.788, 7.16331
698.936, 7.29831
701.49, 7.42488
704.239, 7.53711
707.807, 7.64774
711.305, 7.61875
714.002, 7.45949
715.159, 7.3472
716.495, 7.21906
717.654, 7.07122
718.67, 6.92918
719.698, 6.79244
720.682, 6.68185
721.765, 6.54164
722.352, 6.40246
723.894, 6.25686
725.362, 6.08463
726.772, 5.94605
728.262, 5.81391
730.06, 5.67006
731.822, 5.55683
735.199, 5.44055
739.823, 5.32751
745.476, 5.26625
751.128, 5.22634
756.78, 5.20602
762.433, 5.18526
768.085, 5.17073
771.425, 5.16032