Folder: semiconductor_data/ingan/ager_2005/in070

Note: ingan/ager_2005/in070/summary.md
## Raman

#### Curve 1 (Disordered Peak)
**Type**: Skewed Loretenzian\
**amplitude:** 1.2\
**center** 501.6\
**σ** 31.7
**σ2** 38.2


#### Curve 2 (Ordered Peak)
**Type**:Gaussian\
**amplitude** 0.9\
**center** 613.0\
**σ** 18.4\


## S<sup>2</sup>
**Disordered Curve Integrated Area:** 63.522447\
**Ordered Curve Integrated Area:** 41.876023\
**S<sup>2</sup>:** 0.3973







## Band gap
1.1 eV


Raman spectrum from Fig. 2 and band gap from Fig. 1 [1]


[1]J. W. Ager, W. Walukiewicz, W. Shan, K. M. Yu, S. X. Li, E. E. Haller, H. Lu, and W. J. Schaff, Phys. Rev. B 72, 155204 (2005).
https://doi.org/10.1103/PhysRevB.72.155204

Note: README.md
# semiconductor_data
Data repository for semiconductor data

File: raman_peaks.csv
435.11, 2.89205
440.763, 2.87128
446.415, 2.8928
452.067, 2.95215
457.646, 3.01683
463.372, 3.00676
469.024, 3.01048
474.63, 3.07448
478.274, 3.19494
480.329, 3.31898
484.183, 3.43148
487.45, 3.54803
490.606, 3.67306
493.175, 3.78977
495.488, 3.93029
500.369, 4.03881
506.124, 4.0499
508.694, 3.92631
511.546, 3.81931
514.586, 3.68023
517.326, 3.57825
520.409, 3.44601
525.034, 3.32011
529.402, 3.21312
534.283, 3.1046
539.936, 3.08428
545.588, 3.04082
551.24, 2.99646
556.893, 2.9984
562.545, 3.02081
568.198, 3.05969
573.85, 2.96637
574.878, 2.95742
579.616, 3.08229
584.281, 3.12568
588.238, 3.22014
590.807, 3.34898
594.147, 3.44032
596.973, 3.55164
600.056, 3.66421
601.906, 3.78541
604.681, 3.9169
608.131, 4.01464
609.562, 4.1217
613.095, 4.22107
615.839, 4.3279
618.555, 4.46664
621.895, 4.56742
624.978, 4.6864
629.543, 4.77931
633.622, 4.86941
637.661, 4.85356
641.507, 4.73124
644.247, 4.6185
646.56, 4.50087
648.461, 4.39424
649.9, 4.28707
651.661, 4.16324
652.726, 4.04598
654.01, 3.92766
655.295, 3.82242
656.653, 3.70052
658.635, 3.57706
660.434, 3.45241
662.232, 3.32666
663.994, 3.21108
667.114, 3.09385
671.481, 3.00631
677.134, 2.95127
682.786, 2.93897
688.438, 2.89951
694.091, 2.8596
699.743, 2.85041