Folder: semiconductor_data/ingan/ager_2005/in085

Note: ingan/ager_2005/in085/summary.md
## Raman

#### Curve 1 (Disordered Peak)
**Type**: Skewed Loretenzian\
**amplitude:** 1.3\
**center** 502.6\
**σ** 35.9
**σ2** 12.1


#### Curve 2 (Ordered Peak)
**Type**:Skewed Gaussian\
**amplitude** 0.7\
**center** 603.6\
**σ** 15.9\
**σ2** 17.6


## S<sup>2</sup>
**Disordered Curve Integrated Area:** 46.687894\
**Ordered Curve Integrated Area:** 27.404970\
**S<sup>2</sup>:** 0.3699



## Band gap
0.8 eV


Raman spectrum from Fig. 2 and band gap from Fig. 1 [1]


[1] J. W. Ager, W. Walukiewicz, W. Shan, K. M. Yu, S. X. Li, E. E. Haller, H. Lu, and W. J. Schaff, Phys. Rev. B 72, 155204 (2005).
https://doi.org/10.1103/PhysRevB.72.155204

Note: README.md
# semiconductor_data
Data repository for semiconductor data

File: raman_peaks.csv
455.664, 2.03908
461.445, 2.00648
466.712, 2.01755
471.851, 2.00162
477.246, 2.07091
481.742, 2.1562
485.468, 2.27167
487.951, 2.40319
490.606, 2.53873
493.689, 2.64544
494.465, 2.76287
496.539, 2.886
499.982, 3.00999
502.83, 2.88707
504.7, 2.77025
506.536, 2.60016
507.049, 2.4763
508.518, 2.33934
509.824, 2.20882
511.417, 2.09604
512.959, 1.9765
515.785, 1.83763
520.923, 1.76467
526.576, 1.72388
530.173, 1.73408
551.806, 1.62297
557.407, 1.61058
563.059, 1.62898
568.711, 1.65896
574.364, 1.72676
580.016, 1.8008
585.411, 1.89346
589.779, 2.01073
595.432, 2.05763
599.057, 2.14504
601.88, 2.26326
605.195, 2.20731
609.049, 2.09968
613.416, 2.03766
618.298, 1.9613
623.179, 1.83598
628.832, 1.7569
633.97, 1.65368
639.109, 1.55876
644.761, 1.48814
650.413, 1.43043
656.066, 1.43014