Folder: semiconductor_data/ingan/ager_2005/in100

Note: ingan/ager_2005/in100/summary.md
## Raman

#### Curve 1 (Disordered Peak)
**Type**: Skewed Loretenzian\
**amplitude:** 1.1\
**center** 493.9\
**σ** 13.1
**σ2** 7.1


#### Curve 2 (Ordered Peak)
**Type**:Skewed Gaussian\
**amplitude** 0.2\
**center** 590.0\
**σ** 11.2\
**σ2** 7.7


## S<sup>2</sup>
**Disordered Curve Integrated Area:** 17.454955\
**Ordered Curve Integrated Area:** 5.675206\
**S<sup>2</sup>:** 0.2454

Since, this is the limiting case of InN,
to determine the S<sup>2</sup> value for the binary material,
the Potts model S<sup>2</sup> value should be multiplied by 4.
**S<sup>2</sup><sub>binary</sub>:** 0.9814


## Band gap
0.7 eV

Raman spectrum from Fig. 2 and band gap from Fig. 1 [1]


[1]J. W. Ager, W. Walukiewicz, W. Shan, K. M. Yu, S. X. Li, E. E. Haller, H. Lu, and W. J. Schaff, Phys. Rev. B 72, 155204 (2005).
https://doi.org/10.1103/PhysRevB.72.155204

Note: README.md
# semiconductor_data
Data repository for semiconductor data

File: raman_peaks.csv
457.72, 1.06467
463.372, 1.02566
469.024, 1.02893
474.677, 1.02419
480.329, 1.05327
484.611, 1.12687
486.701, 1.23463
487.934, 1.40452
488.679, 1.59341
489.623, 1.73718
492.818, 1.89466
496.112, 1.63684
496.772, 1.53049
498.057, 1.39674
498.4, 1.27594
499.65, 1.162
501.34, 1.01137
504.88, 0.920465
510.132, 0.890176
515.785, 0.860955
521.18, 0.833349
548.113, 0.799346
548.113, 0.799346
548.113, 0.799346
548.113, 0.799346
548.157, 0.795199
549.057, 0.799297
553.81, 0.779775
559.462, 0.788387
565.114, 0.827264
570.767, 0.847448
576.419, 0.872083
582.071, 0.972829
587.921, 0.99646
593.119, 0.962825
598.258, 0.87786
603.653, 0.783891
609.305, 0.758676
614.958, 0.752154
620.61, 0.715366
626.263, 0.701723
631.915, 0.701433
636.283, 0.706995