Folder: semiconductor_data/insb/dixit_2002/insb_film

Note: insb/dixit_2002/insb_film/summary.md
## Raman

#### Curve 1 (Disordered Peak)
**Type**: Skewed Gaussian\
**amplitude:** 385.0\
**center** 169.1\
**σ** 4.6
**σ2** 5.6


#### Curve 2 (Ordered Peak)
**Type**:Skewed Gaussian\
**amplitude** 240.0\
**center** 161.9\
**σ** 5.0\
**σ2** 6.2


## S<sup>2</sup>
**Disordered Curve Integrated Area:** 4935.429354\
**Ordered Curve Integrated Area:** 3381.481515\
**S<sup>2</sup>:** 0.4066


## Band gap
0.198 eV

Raman spectrum from Fig. 4a and band gap from Fig. 3 of [1]


[1] V. K. Dixit, B. V. Rodrigues, H. L. Bhat, R. Venkataraghavan, K. S. Chandrasekaran, and B. M. Arora, Journal of Crystal Growth 235, 154 (2002).
https://doi.org/10.1016/S0022-0248(01)01919-4

Note: README.md
# semiconductor_data
Data repository for semiconductor data

File: raman_peaks.csv
142.268, 652.335
144.949, 665.116
147.728, 679.829
150.02, 703.194
151.656, 724.35
154.215, 729.625
155.153, 749.128
156.087, 772.641
156.487, 793.924
156.885, 819.023
157.295, 834.836
157.729, 859.63
158.425, 891.391
159.41, 925.379
160.409, 959.263
161.068, 991.734
161.791, 1025.5
162.61, 1056.06
163.237, 1023.63
163.432, 1084.62
164.192, 1116.86
165.555, 1169.83
167.961, 1172.98
170.193, 1159.29
170.877, 1132.41
170.944, 1106.33
171.558, 1074.67
172.287, 1043.3
172.886, 1006.94
173.511, 972.978
174.17, 934.793
174.545, 955.065
174.87, 897.718
175.799, 863.277
176.596, 829.941
177.446, 800.986
178.747, 758.859
179.678, 737.331
180.806, 716.068
182.145, 692.758