Folder: semiconductor_data/insb/dixit_2002/wafer

Note: insb/dixit_2002/wafer/summary.md
## Raman

#### Curve 1 (Disordered Peak)
**Type**: Skewed Loretenzian\
**amplitude:** 509.2\
**center** 189.5\
**σ** 9.0
**σ2** 6.6


#### Curve 2 (Ordered Peak)
**Type**:Skewed Loretenzian\
**amplitude** 294.0\
**center** 185.0\
**σ** 12.0\
**σ2** 12.0


## S<sup>2</sup>
**Disordered Curve Integrated Area:** 6175.135738\
**Ordered Curve Integrated Area:** 5450.982739\
**S<sup>2</sup>:** 0.4689


## Band gap
0.167 eV


Raman spectrum from Fig. 4a and band gap from Fig. 3 of [1]


[1] V. K. Dixit, B. V. Rodrigues, H. L. Bhat, R. Venkataraghavan, K. S. Chandrasekaran, and B. M. Arora, Journal of Crystal Growth 235, 154 (2002).
https://doi.org/10.1016/S0022-0248(01)01919-4

Note: README.md
# semiconductor_data
Data repository for semiconductor data

File: raman_peaks.csv
154.741, 649.761
157.438, 648.902
160.256, 660.434
162.838, 672.119
167.476, 699.891
169.147, 718.153
171, 730.581
172.581, 734.77
175.743, 777.802
176.457, 860.194
176.652, 829.661
176.706, 803.211
178.968, 857.16
180, 878.245
180.756, 910.097
181.65, 941.053
182.037, 968.408
182.432, 993.402
182.925, 1021.65
183.287, 1044.54
183.318, 1109.64
183.717, 1090.55
183.891, 1062.87
184.379, 1200.84
184.38, 1164.21
185.047, 1228.87
185.075, 1260.57
185.969, 1302.43
187.706, 1352.74
188.993, 1306.17
189.242, 1360.92
189.251, 1328.53
190.022, 1270.3
190.723, 1240.18
190.793, 1195.88
190.914, 1220.97
191.416, 1163.7
191.598, 1144.23
192.321, 1117.49
192.407, 1092.62
192.856, 1065.73
192.894, 994.935
193.148, 972.807
193.251, 944.184
193.659, 1031.41
193.731, 907.889
194.375, 846.73
194.411, 874.277
194.953, 817.368
195.14, 795.076
195.509, 772.397
196.19, 743.697
197.762, 719.747
200.143, 709.358
200.807, 698.287
203.313, 702.503
205.225, 687.133
207.776, 686.099
210.205, 687.255