Folder: semiconductor_data/inn/kurimoto_2004/as_grown/raman

Note: inn/kurimoto_2004/as_grown/raman/summary.md
## Raman

#### Curve 1 (Disordered Peak)
**Type**: Skewed Gaussian\
**amplitude:** 0.0\
**center** 438.3\
**σ** 6.0
**σ2** 5.4


#### Curve 2 (Ordered Peak)
**Type**:Skewed Loretenzian\
**amplitude** 0.3\
**center** 489.0\
**σ** 9.0\
**σ2** 8.7


## S<sup>2</sup>
**Disordered Curve Integrated Area:** 0.500692\
**Ordered Curve Integrated Area:** 4.434253\
**S<sup>2</sup>:** 0.8985




## Band gap
0.945 eV


Raman spectrum from Fig. 1 and band gap from Fig. 2 of [1]

[1]E. Kurimoto, M. Hangyo, H. Harima, M. Yoshimoto, T. Yamaguchi, T. Araki, Y. Nanishi, and K. Kisoda, Applied Physics Letters 84, 212 (2004).
https://doi.org/10.1063/1.1639511

Note: README.md
# semiconductor_data
Data repository for semiconductor data

File: curve_1_fit.dat
422.016,0.000872094
422.516,0.00108994
423.016,0.00135277
423.516,0.00166737
424.016,0.00204091
424.516,0.00248084
425.016,0.00299473
425.516,0.00359006
426.016,0.00427395
426.516,0.0050529
427.016,0.00593248
427.516,0.00691697
428.016,0.00800903
428.516,0.00920932
429.016,0.0105162
429.516,0.0119255
430.016,0.01343
430.516,0.0150196
431.016,0.0166812
431.516,0.0183984
432.016,0.0201519
432.516,0.0219198
433.016,0.0236778
433.516,0.0253997
434.016,0.0270584
434.516,0.0286259
435.016,0.0300745
435.516,0.0313779
436.016,0.0325112
436.516,0.0334523
437.016,0.0341824
437.516,0.0346867
438.016,0.0349549
438.516,0.0349772
439.016,0.0347125
439.516,0.0341571
440.016,0.0333253
440.516,0.0322376
441.016,0.0309205
441.516,0.0294054
442.016,0.027727
442.516,0.0259224
443.016,0.0240294
443.516,0.0220855
444.016,0.0201265
444.516,0.0181855
445.016,0.0162921
445.516,0.0144719
446.016,0.0127459
446.516,0.0111304
447.016,0.00963712
447.516,0.00827332
448.016,0.0070422
448.516,0.00594337
449.016,0.0049734
449.516,0.00412638
450.016,0.00339455
450.516,0.0027688
451.016,0.00223921
451.516,0.00179554
452.016,0.00142755
452.516,0.00112534
453.016,0.000879577
453.516,0.000681646
454.016,0.000523768
454.516,0.00039904
455.016,0.000301432
455.516,0.000225765
456.016,0.000167657
456.516,0.000123448
457.016,9.01238e-05
457.516,6.52368e-05
458.016,4.68211e-05
458.516,3.33186e-05
459.016,2.35086e-05
459.516,1.64461e-05
460.016,1.14077e-05
460.516,7.84559e-06
461.016,5.34996e-06
461.516,3.61719e-06
462.016,2.42487e-06
462.516,1.61176e-06
463.016,1.06221e-06
463.516,6.94089e-07
464.016,4.49693e-07
464.516,2.88877e-07
465.016,1.83995e-07
465.516,1.16197e-07
466.016,7.27579e-08
466.516,4.51712e-08
467.016,2.7806e-08
467.516,1.69712e-08
468.016,1.02702e-08
468.516,6.16234e-09
469.016,3.66612e-09
469.516,2.16254e-09
470.016,1.26479e-09
470.516,7.33443e-10
471.016,4.21707e-10
471.516,2.4041e-10
472.016,1.35891e-10
472.516,7.61593e-11
473.016,4.23206e-11
473.516,2.33173e-11
474.016,1.27379e-11
474.516,6.89947e-12
475.016,3.70535e-12
475.516,1.97305e-12
476.016,1.0417e-12
476.516,5.45312e-13
477.016,2.83037e-13
477.516,1.45659e-13
478.016,7.43234e-14
478.516,3.7602e-14
479.016,1.88622e-14
479.516,9.38144e-15
480.016,4.6264e-15
480.516,2.2621e-15
481.016,1.09668e-15
481.516,5.27157e-16
482.016,2.51245e-16
482.516,1.18727e-16
483.016,5.56289e-17
483.516,2.58432e-17
484.016,1.19038e-17
484.516,5.43657e-18
485.016,2.46183e-18
485.516,1.10532e-18
486.016,4.92055e-19
486.516,2.17188e-19
487.016,9.50502e-20
487.516,4.12446e-20
488.016,1.7745e-20
488.516,7.56976e-21
489.016,3.20172e-21
489.516,1.34271e-21
490.016,5.5831e-22
490.516,2.30179e-22
491.016,9.40916e-23
491.516,3.81358e-23
492.016,1.53254e-23
492.516,6.10639e-24
493.016,2.41243e-24
493.516,9.44974e-25
494.016,3.67013e-25
494.516,1.41332e-25
495.016,5.39627e-26
495.516,2.04288e-26
496.016,7.66813e-27
496.516,2.85385e-27
497.016,1.0531e-27
497.516,3.85304e-28
498.016,1.39776e-28
498.516,5.02758e-29
499.016,1.793e-29
499.516,6.34015e-30
500.016,2.22287e-30
500.516,7.72722e-31
501.016,2.66336e-31
501.516,9.10189e-32
502.016,3.08411e-32
502.516,1.03615e-32
503.016,3.45155e-33
503.516,1.13999e-33
504.016,3.73321e-34
504.516,1.21216e-34
505.016,3.90243e-35
505.516,1.24568e-35
506.016,3.9425e-36
506.516,1.23718e-36
507.016,3.84939e-37
507.516,1.18753e-37
508.016,3.63242e-38
508.516,1.10165e-38
509.016,3.31272e-39
509.516,9.87696e-40
510.016,2.91983e-40
510.516,8.55831e-41
511.016,2.48722e-41
511.516,7.16699e-42
512.016,2.04765e-42
512.516,5.80055e-43
513.016,1.62922e-43
513.516,4.53718e-44
514.016,1.25282e-44
514.516,3.42995e-45
515.016,9.31069e-46
515.516,2.50595e-46
516.016,6.68742e-47
516.516,1.76946e-47
517.016,4.64216e-48
517.516,1.20752e-48
518.016,3.11433e-49
518.516,7.96401e-50
519.016,2.01927e-50
519.516,5.07637e-51
520.016,1.26534e-51
520.516,3.12722e-52
521.016,7.66311e-53
521.516,1.86186e-53
522.016,4.48525e-54
522.516,1.07132e-54
523.016,2.53718e-55
523.516,5.9577e-56
524.016,1.38708e-56
524.516,3.20199e-57
525.016,7.32883e-58
525.516,1.6632e-58
526.016,3.74242e-59
526.516,8.3494e-60
527.016,1.84695e-60
527.516,4.05088e-61
528.016,8.80927e-62
528.516,1.89944e-62
529.016,4.06078e-63
529.516,8.60773e-64
530.016,1.8091e-64
530.516,3.76994e-65
531.016,7.78935e-66
531.516,1.59575e-66
532.016,3.24133e-67
532.516,6.52797e-68
533.016,1.30356e-68
533.516,2.58093e-69
534.016,5.06663e-70
534.516,9.86185e-71
535.016,1.90324e-71
535.516,3.64187e-72
536.016,6.90958e-73
536.516,1.2998e-73
537.016,2.42434e-74
537.516,4.48342e-75
538.016,8.22092e-76
538.516,1.49461e-76
539.016,2.69421e-77
539.516,4.81537e-78
540.016,8.53346e-79
540.516,1.4994e-79
541.016,2.61218e-80
541.516,4.51219e-81
542.016,7.72799e-82
542.516,1.31233e-82
543.016,2.2096e-83
543.516,3.68876e-84
544.016,6.10582e-85
544.516,1.00208e-85
545.016,1.63064e-86
545.516,2.63093e-87
546.016,4.20879e-88
546.516,6.67576e-89
547.016,1.04988e-89
547.516,1.6371e-90
548.016,2.53109e-91
548.516,3.88003e-92
549.016,5.89737e-93
549.516,8.88746e-94
550.016,1.32798e-94
550.516,1.96745e-95
551.016,2.8901e-96
551.516,4.20936e-97
552.016,6.07877e-98
552.516,8.70384e-99
553.016,1.23567e-99
553.516,1.73936e-100
554.016,2.42758e-101
554.516,3.35934e-102
555.016,4.60924e-103
555.516,6.27048e-104
556.016,8.45802e-105
556.516,1.13118e-105
557.016,1.5e-106
557.516,1.97219e-107
558.016,2.57099e-108
558.516,3.32313e-109
559.016,4.25884e-110
559.516,5.41167e-111
560.016,6.81816e-112
560.516,8.51724e-113
561.016,1.05494e-113
561.516,1.29554e-114
562.016,1.5775e-115
562.516,1.90452e-116
563.016,2.27981e-117
563.516,2.70586e-118
564.016,3.18427e-119
564.516,3.71544e-120
565.016,4.29839e-121
565.516,4.93058e-122
566.016,5.60772e-123
566.516,6.32368e-124
567.016,7.0705e-125
567.516,7.83838e-126
568.016,8.61585e-127
568.516,9.39001e-128
569.016,1.01468e-128
569.516,1.08715e-129
569.716,4.43851e-130

File: curve_2_fit.dat
422.016,0.00143835
422.516,0.00145997
423.016,0.00148209
423.516,0.0015047
424.016,0.00152784
424.516,0.00155152
425.016,0.00157575
425.516,0.00160054
426.016,0.00162593
426.516,0.00165193
427.016,0.00167856
427.516,0.00170583
428.016,0.00173377
428.516,0.0017624
429.016,0.00179175
429.516,0.00182183
430.016,0.00185267
430.516,0.00188431
431.016,0.00191676
431.516,0.00195005
432.016,0.00198422
432.516,0.00201929
433.016,0.0020553
433.516,0.00209227
434.016,0.00213025
434.516,0.00216928
435.016,0.00220938
435.516,0.0022506
436.016,0.00229298
436.516,0.00233657
437.016,0.00238141
437.516,0.00242755
438.016,0.00247504
438.516,0.00252394
439.016,0.00257429
439.516,0.00262616
440.016,0.00267962
440.516,0.00273471
441.016,0.00279152
441.516,0.00285011
442.016,0.00291056
442.516,0.00297294
443.016,0.00303735
443.516,0.00310386
444.016,0.00317258
444.516,0.0032436
445.016,0.00331702
445.516,0.00339295
446.016,0.00347151
446.516,0.00355282
447.016,0.00363701
447.516,0.00372421
448.016,0.00381458
448.516,0.00390826
449.016,0.00400542
449.516,0.00410624
450.016,0.00421089
450.516,0.00431957
451.016,0.0044325
451.516,0.00454989
452.016,0.00467199
452.516,0.00479904
453.016,0.00493131
453.516,0.00506911
454.016,0.00521272
454.516,0.00536249
455.016,0.00551878
455.516,0.00568195
456.016,0.00585242
456.516,0.00603063
457.016,0.00621705
457.516,0.00641218
458.016,0.00661659
458.516,0.00683085
459.016,0.00705561
459.516,0.00729156
460.016,0.00753945
460.516,0.00780009
461.016,0.00807436
461.516,0.00836323
462.016,0.00866772
462.516,0.00898899
463.016,0.00932827
463.516,0.00968693
464.016,0.0100664
464.516,0.0104684
465.016,0.0108947
465.516,0.0113472
466.016,0.0118281
466.516,0.0123399
467.016,0.0128851
467.516,0.0134667
468.016,0.0140879
468.516,0.0147525
469.016,0.0154643
469.516,0.016228
470.016,0.0170486
470.516,0.0179317
471.016,0.0188838
471.516,0.019912
472.016,0.0210245
472.516,0.0222304
473.016,0.0235402
473.516,0.0249659
474.016,0.026521
474.516,0.0282212
475.016,0.0300842
475.516,0.0321307
476.016,0.0343846
476.516,0.0368732
477.016,0.0396287
477.516,0.0426882
478.016,0.0460951
478.516,0.0499001
479.016,0.0541625
479.516,0.0589517
480.016,0.0643489
480.516,0.0704489
481.016,0.0773619
481.516,0.0852153
482.016,0.0941543
482.516,0.104341
483.016,0.115954
483.516,0.129174
484.016,0.144175
484.516,0.16109
485.016,0.179967
485.516,0.200699
486.016,0.222928
486.516,0.245937
487.016,0.26856
487.516,0.289166
488.016,0.305807
488.516,0.316555
489.016,0.319984
489.516,0.315356
490.016,0.303155
490.516,0.285061
491.016,0.263218
491.516,0.239693
492.016,0.21614
492.516,0.193685
493.016,0.172976
493.516,0.154297
494.016,0.137691
494.516,0.123062
495.016,0.11024
495.516,0.0990293
496.016,0.0892327
496.516,0.0806645
497.016,0.0731574
497.516,0.0665644
498.016,0.0607582
498.516,0.0556295
499.016,0.0510851
499.516,0.0470454
500.016,0.0434429
500.516,0.0402202
501.016,0.0373284
501.516,0.0347257
502.016,0.0323763
502.516,0.0302497
503.016,0.0283196
503.516,0.0265631
504.016,0.0249608
504.516,0.0234956
505.016,0.0221526
505.516,0.0209191
506.016,0.0197836
506.516,0.0187363
507.016,0.0177685
507.516,0.0168724
508.016,0.0160413
508.516,0.0152692
509.016,0.0145506
509.516,0.0138809
510.016,0.0132557
510.516,0.0126713
511.016,0.0121242
511.516,0.0116114
512.016,0.01113
512.516,0.0106776
513.016,0.010252
513.516,0.00985109
514.016,0.00947299
514.516,0.00911604
515.016,0.00877872
515.516,0.00845961
516.016,0.00815744
516.516,0.00787105
517.016,0.00759936
517.516,0.00734139
518.016,0.00709625
518.516,0.00686309
519.016,0.00664116
519.516,0.00642975
520.016,0.00622821
520.516,0.00603595
521.016,0.00585239
521.516,0.00567704
522.016,0.0055094
522.516,0.00534904
523.016,0.00519555
523.516,0.00504853
524.016,0.00490764
524.516,0.00477253
525.016,0.0046429
525.516,0.00451846
526.016,0.00439893
526.516,0.00428406
527.016,0.00417361
527.516,0.00406736
528.016,0.0039651
528.516,0.00386663
529.016,0.00377178
529.516,0.00368035
530.016,0.0035922
530.516,0.00350717
531.016,0.00342511
531.516,0.00334589
532.016,0.00326937
532.516,0.00319545
533.016,0.00312399
533.516,0.0030549
534.016,0.00298806
534.516,0.00292339
535.016,0.00286079
535.516,0.00280017
536.016,0.00274146
536.516,0.00268457
537.016,0.00262942
537.516,0.00257595
538.016,0.0025241
538.516,0.00247378
539.016,0.00242496
539.516,0.00237756
540.016,0.00233154
540.516,0.00228683
541.016,0.0022434
541.516,0.00220119
542.016,0.00216015
542.516,0.00212025
543.016,0.00208145
543.516,0.0020437
544.016,0.00200696
544.516,0.0019712
545.016,0.00193639
545.516,0.00190249
546.016,0.00186947
546.516,0.0018373
547.016,0.00180596
547.516,0.0017754
548.016,0.00174562
548.516,0.00171657
549.016,0.00168825
549.516,0.00166062
550.016,0.00163366
550.516,0.00160735
551.016,0.00158167
551.516,0.0015566
552.016,0.00153212
552.516,0.00150821
553.016,0.00148486
553.516,0.00146204
554.016,0.00143974
554.516,0.00141795
555.016,0.00139665
555.516,0.00137583
556.016,0.00135547
556.516,0.00133555
557.016,0.00131608
557.516,0.00129702
558.016,0.00127837
558.516,0.00126012
559.016,0.00124226
559.516,0.00122478
560.016,0.00120766
560.516,0.0011909
561.016,0.00117449
561.516,0.00115841
562.016,0.00114266
562.516,0.00112722
563.016,0.0011121
563.516,0.00109728
564.016,0.00108276
564.516,0.00106851
565.016,0.00105455
565.516,0.00104086
566.016,0.00102744
566.516,0.00101427
567.016,0.00100135
567.516,0.000988683
568.016,0.000976251
568.516,0.000964051
569.016,0.000952079
569.516,0.000940327
569.716,0.000935688

File: curve_total_fit.dat
422.016,0.10231
422.516,0.10255
423.016,0.102835
423.516,0.103172
424.016,0.103569
424.516,0.104032
425.016,0.10457
425.516,0.105191
426.016,0.1059
426.516,0.106705
427.016,0.107611
427.516,0.108623
428.016,0.109743
428.516,0.110972
429.016,0.112308
429.516,0.113747
430.016,0.115283
430.516,0.116904
431.016,0.118598
431.516,0.120348
432.016,0.122136
432.516,0.123939
433.016,0.125733
433.516,0.127492
434.016,0.129189
434.516,0.130795
435.016,0.132284
435.516,0.133628
436.016,0.134804
436.516,0.135789
437.016,0.136564
437.516,0.137114
438.016,0.13743
438.516,0.137501
439.016,0.137287
439.516,0.136783
440.016,0.136005
440.516,0.134972
441.016,0.133712
441.516,0.132255
442.016,0.130638
442.516,0.128895
443.016,0.127067
443.516,0.125189
444.016,0.123299
444.516,0.121429
445.016,0.119609
445.516,0.117865
446.016,0.116217
446.516,0.114683
447.016,0.113274
447.516,0.111998
448.016,0.110857
448.516,0.109852
449.016,0.108979
449.516,0.108233
450.016,0.107605
450.516,0.107088
451.016,0.106672
451.516,0.106345
452.016,0.1061
452.516,0.105924
453.016,0.105811
453.516,0.105751
454.016,0.105736
454.516,0.105762
455.016,0.10582
455.516,0.105908
456.016,0.10602
456.516,0.106154
457.016,0.106307
457.516,0.106477
458.016,0.106663
458.516,0.106864
459.016,0.107079
459.516,0.107308
460.016,0.107551
460.516,0.107808
461.016,0.10808
461.516,0.108367
462.016,0.10867
462.516,0.108991
463.016,0.109329
463.516,0.109688
464.016,0.110067
464.516,0.110469
465.016,0.110895
465.516,0.111347
466.016,0.111828
466.516,0.11234
467.016,0.112885
467.516,0.113467
468.016,0.114088
468.516,0.114752
469.016,0.115464
469.516,0.116228
470.016,0.117049
470.516,0.117932
471.016,0.118884
471.516,0.119912
472.016,0.121024
472.516,0.12223
473.016,0.12354
473.516,0.124966
474.016,0.126521
474.516,0.128221
475.016,0.130084
475.516,0.132131
476.016,0.134385
476.516,0.136873
477.016,0.139629
477.516,0.142688
478.016,0.146095
478.516,0.1499
479.016,0.154163
479.516,0.158952
480.016,0.164349
480.516,0.170449
481.016,0.177362
481.516,0.185215
482.016,0.194154
482.516,0.204341
483.016,0.215954
483.516,0.229174
484.016,0.244175
484.516,0.26109
485.016,0.279967
485.516,0.300699
486.016,0.322928
486.516,0.345937
487.016,0.36856
487.516,0.389166
488.016,0.405807
488.516,0.416555
489.016,0.419984
489.516,0.415356
490.016,0.403155
490.516,0.385061
491.016,0.363218
491.516,0.339693
492.016,0.31614
492.516,0.293685
493.016,0.272976
493.516,0.254297
494.016,0.237691
494.516,0.223062
495.016,0.21024
495.516,0.199029
496.016,0.189233
496.516,0.180664
497.016,0.173157
497.516,0.166564
498.016,0.160758
498.516,0.15563
499.016,0.151085
499.516,0.147045
500.016,0.143443
500.516,0.14022
501.016,0.137328
501.516,0.134726
502.016,0.132376
502.516,0.13025
503.016,0.12832
503.516,0.126563
504.016,0.124961
504.516,0.123496
505.016,0.122153
505.516,0.120919
506.016,0.119784
506.516,0.118736
507.016,0.117768
507.516,0.116872
508.016,0.116041
508.516,0.115269
509.016,0.114551
509.516,0.113881
510.016,0.113256
510.516,0.112671
511.016,0.112124
511.516,0.111611
512.016,0.11113
512.516,0.110678
513.016,0.110252
513.516,0.109851
514.016,0.109473
514.516,0.109116
515.016,0.108779
515.516,0.10846
516.016,0.108157
516.516,0.107871
517.016,0.107599
517.516,0.107341
518.016,0.107096
518.516,0.106863
519.016,0.106641
519.516,0.10643
520.016,0.106228
520.516,0.106036
521.016,0.105852
521.516,0.105677
522.016,0.105509
522.516,0.105349
523.016,0.105196
523.516,0.105049
524.016,0.104908
524.516,0.104773
525.016,0.104643
525.516,0.104518
526.016,0.104399
526.516,0.104284
527.016,0.104174
527.516,0.104067
528.016,0.103965
528.516,0.103867
529.016,0.103772
529.516,0.10368
530.016,0.103592
530.516,0.103507
531.016,0.103425
531.516,0.103346
532.016,0.103269
532.516,0.103195
533.016,0.103124
533.516,0.103055
534.016,0.102988
534.516,0.102923
535.016,0.102861
535.516,0.1028
536.016,0.102741
536.516,0.102685
537.016,0.102629
537.516,0.102576
538.016,0.102524
538.516,0.102474
539.016,0.102425
539.516,0.102378
540.016,0.102332
540.516,0.102287
541.016,0.102243
541.516,0.102201
542.016,0.10216
542.516,0.10212
543.016,0.102081
543.516,0.102044
544.016,0.102007
544.516,0.101971
545.016,0.101936
545.516,0.101902
546.016,0.101869
546.516,0.101837
547.016,0.101806
547.516,0.101775
548.016,0.101746
548.516,0.101717
549.016,0.101688
549.516,0.101661
550.016,0.101634
550.516,0.101607
551.016,0.101582
551.516,0.101557
552.016,0.101532
552.516,0.101508
553.016,0.101485
553.516,0.101462
554.016,0.10144
554.516,0.101418
555.016,0.101397
555.516,0.101376
556.016,0.101355
556.516,0.101336
557.016,0.101316
557.516,0.101297
558.016,0.101278
558.516,0.10126
559.016,0.101242
559.516,0.101225
560.016,0.101208
560.516,0.101191
561.016,0.101174
561.516,0.101158
562.016,0.101143
562.516,0.101127
563.016,0.101112
563.516,0.101097
564.016,0.101083
564.516,0.101069
565.016,0.101055
565.516,0.101041
566.016,0.101027
566.516,0.101014
567.016,0.101001
567.516,0.100989
568.016,0.100976
568.516,0.100964
569.016,0.100952
569.516,0.10094
569.716,0.100936

File: raman_peaks.csv
416.147, 0.099757
422.016, 0.100091
427.242, 0.110917
433.43, 0.124201
437.454, 0.142558
442.317, 0.129263
445.897, 0.116571
452.118, 0.106935
456.877, 0.1046
462.778, 0.103532
469.31, 0.11219
474.593, 0.118405
479.941, 0.137742
482.634, 0.171285
483.283, 0.224059
483.262, 0.196671
483.862, 0.297481
484.609, 0.252212
485.999, 0.363045
489.139, 0.409264
493.019, 0.332903
493.541, 0.28197
493.909, 0.23145
495.224, 0.186005
495.974, 0.148568
498.994, 0.119574
503.511, 0.104298
509.013, 0.101073
514.516, 0.0998346
520.492, 0.103545
526.337, 0.0984307
532.375, 0.0975954
538.011, 0.0968003
542.984, 0.0986793
549.185, 0.101303
554.925, 0.103285
561.027, 0.105413
566.406, 0.106681
569.799, 0.109004