Folder: semiconductor_data/inn/kurimoto_2004/450C/raman

Note: inn/kurimoto_2004/450C/raman/summary.md
## Raman

#### Curve 1 (Disordered Peak)
**Type**: Skewed Loretenzian\
**amplitude:** 0.4\
**center** 419.0\
**σ** 5.0
**σ2** 5.0


#### Curve 2 (Ordered Peak)
**Type**:Skewed Gaussian\
**amplitude** 0.3\
**center** 491.6\
**σ** 6.5\
**σ2** 6.6


## S<sup>2</sup>
**Disordered Curve Integrated Area:** 2.980109\
**Ordered Curve Integrated Area:** 4.331354\
**S<sup>2</sup>:** 0.5924




## Band gap
1.84 eV

Raman spectrum from Fig. 1 and band gap from Fig. 2 of [1]

[1]E. Kurimoto, M. Hangyo, H. Harima, M. Yoshimoto, T. Yamaguchi, T. Araki, Y. Nanishi, and K. Kisoda, Applied Physics Letters 84, 212 (2004).
https://doi.org/10.1063/1.1639511

Note: README.md
# semiconductor_data
Data repository for semiconductor data

File: curve_1_fit.dat
414.631,0.0935511
415.031,0.107731
415.431,0.124837
415.831,0.145487
416.231,0.170316
416.631,0.199824
417.031,0.234064
417.431,0.272091
417.831,0.311224
418.231,0.346503
418.631,0.371222
419.031,0.379275
419.431,0.368557
419.831,0.34211
420.231,0.3062
420.631,0.267257
421.031,0.22985
421.431,0.196361
421.831,0.167568
422.231,0.143351
422.631,0.123197
423.031,0.106481
423.431,0.0926038
423.831,0.0810433
424.231,0.0713646
424.631,0.0632148
425.031,0.0563105
425.431,0.0504252
425.831,0.0453781
426.231,0.0410242
426.631,0.0372471
427.031,0.0339528
427.431,0.0310649
427.831,0.0285212
428.231,0.0262703
428.631,0.0242701
429.031,0.0224854
429.431,0.020887
429.831,0.0194504
430.231,0.0181546
430.631,0.0169823
431.031,0.0159184
431.431,0.0149501
431.831,0.0140665
432.231,0.0132581
432.631,0.0125167
433.031,0.0118351
433.431,0.0112072
433.831,0.0106275
434.231,0.0100913
434.631,0.00959429
435.031,0.00913285
435.431,0.00870366
435.831,0.00830382
436.231,0.00793072
436.631,0.00758205
437.031,0.00725574
437.431,0.00694992
437.831,0.00666292
438.231,0.00639325
438.631,0.00613953
439.031,0.00590055
439.431,0.00567518
439.831,0.00546243
440.231,0.00526136
440.631,0.00507115
441.031,0.00489102
441.431,0.00472029
441.831,0.0045583
442.231,0.00440449
442.631,0.0042583
443.031,0.00411924
443.431,0.00398686
443.831,0.00386074
444.231,0.0037405
444.631,0.00362576
445.031,0.00351621
445.431,0.00341154
445.831,0.00331146
446.231,0.0032157
446.631,0.00312403
447.031,0.00303622
447.431,0.00295204
447.831,0.00287131
448.231,0.00279384
448.631,0.00271946
449.031,0.002648
449.431,0.00257931
449.831,0.00251325
450.231,0.0024497
450.631,0.00238852
451.031,0.0023296
451.431,0.00227283
451.831,0.00221811
452.231,0.00216533
452.631,0.00211442
453.031,0.00206527
453.431,0.00201782
453.831,0.00197198
454.231,0.00192768
454.631,0.00188485
455.031,0.00184344
455.431,0.00180337
455.831,0.00176459
456.231,0.00172705
456.631,0.00169069
457.031,0.00165547
457.431,0.00162133
457.831,0.00158824
458.231,0.00155615
458.631,0.00152502
459.031,0.00149482
459.431,0.0014655
459.831,0.00143703
460.231,0.00140939
460.631,0.00138253
461.031,0.00135644
461.431,0.00133107
461.831,0.00130641
462.231,0.00128243
462.631,0.0012591
463.031,0.0012364
463.431,0.00121431
463.831,0.00119281
464.231,0.00117187
464.631,0.00115147
465.031,0.00113161
465.431,0.00111225
465.831,0.00109339
466.231,0.001075
466.631,0.00105707
467.031,0.00103958
467.431,0.00102253
467.831,0.00100589
468.231,0.00098965
468.631,0.000973803
469.031,0.000958333
469.431,0.000943228
469.831,0.000928478
470.231,0.00091407
470.631,0.000899996
471.031,0.000886243
471.431,0.000872803
471.831,0.000859666
472.231,0.000846824
472.631,0.000834266
473.031,0.000821986
473.431,0.000809975
473.831,0.000798225
474.231,0.000786729
474.631,0.000775479
475.031,0.000764468
475.431,0.000753691
475.831,0.000743139
476.231,0.000732807
476.631,0.000722689
477.031,0.00071278
477.431,0.000703072
477.831,0.000693561
478.231,0.000684242
478.631,0.000675109
479.031,0.000666158
479.431,0.000657384
479.831,0.000648782
480.231,0.000640347
480.631,0.000632076
481.031,0.000623963
481.431,0.000616006
481.831,0.0006082
482.231,0.000600542
482.631,0.000593027
483.031,0.000585652
483.431,0.000578414
483.831,0.000571309
484.231,0.000564335
484.631,0.000557487
485.031,0.000550763
485.431,0.000544159
485.831,0.000537674
486.231,0.000531304
486.631,0.000525047
487.031,0.000518899
487.431,0.000512859
487.831,0.000506923
488.231,0.00050109
488.631,0.000495357
489.031,0.000489722
489.431,0.000484182
489.831,0.000478735
490.231,0.000473381
490.631,0.000468115
491.031,0.000462937
491.431,0.000457844
491.831,0.000452834
492.231,0.000447907
492.631,0.000443059
493.031,0.00043829
493.431,0.000433597
493.831,0.000428979
494.231,0.000424434
494.631,0.000419962
495.031,0.000415559
495.431,0.000411226
495.831,0.000406959
496.231,0.000402759
496.631,0.000398624
497.031,0.000394552
497.431,0.000390542
497.831,0.000386592
498.231,0.000382703
498.631,0.000378871
499.031,0.000375097
499.431,0.000371379
499.831,0.000367716
500.231,0.000364107
500.631,0.000360551
501.031,0.000357047
501.431,0.000353593
501.831,0.000350189
502.231,0.000346835
502.631,0.000343528
503.031,0.000340268
503.431,0.000337054
503.831,0.000333886
504.231,0.000330762
504.631,0.000327682
505.031,0.000324644
505.431,0.000321649
505.831,0.000318695
506.231,0.000315781
506.631,0.000312907
507.031,0.000310072
507.431,0.000307276
507.831,0.000304517
508.131,0.000302472

File: curve_2_fit.dat
414.631,6.62988e-32
415.031,1.3767e-31
415.431,2.84787e-31
415.831,5.86876e-31
416.231,1.20481e-30
416.631,2.46398e-30
417.031,5.01998e-30
417.431,1.01886e-29
417.831,2.06001e-29
418.231,4.14927e-29
418.631,8.3257e-29
419.031,1.66424e-28
419.431,3.31403e-28
419.831,6.57421e-28
420.231,1.2992e-27
420.631,2.55773e-27
421.031,5.01627e-27
421.431,9.80058e-27
421.831,1.90752e-26
422.231,3.69856e-26
422.631,7.14401e-26
423.031,1.37467e-25
423.431,2.63511e-25
423.831,5.03207e-25
424.231,9.57283e-25
424.631,1.81418e-24
425.031,3.42504e-24
425.431,6.44166e-24
425.831,1.20691e-23
426.231,2.25268e-23
426.631,4.18861e-23
427.031,7.75865e-23
427.431,1.43169e-22
427.831,2.63182e-22
428.231,4.8196e-22
428.631,8.79248e-22
429.031,1.59793e-21
429.431,2.89301e-21
429.831,5.21782e-21
430.231,9.37505e-21
430.631,1.67805e-20
431.031,2.99213e-20
431.431,5.31501e-20
431.831,9.40531e-20
432.231,1.65801e-19
432.631,2.91172e-19
433.031,5.09397e-19
433.431,8.87788e-19
433.831,1.54138e-18
434.231,2.66596e-18
434.631,4.59352e-18
435.031,7.88466e-18
435.431,1.34824e-17
435.831,2.29666e-17
436.231,3.89737e-17
436.631,6.58861e-17
437.031,1.10959e-16
437.431,1.86155e-16
437.831,3.11125e-16
438.231,5.18014e-16
438.631,8.59198e-16
439.031,1.41968e-15
439.431,2.33688e-15
439.831,3.832e-15
440.231,6.25982e-15
440.631,1.0187e-14
441.031,1.65148e-14
441.431,2.66715e-14
441.831,4.2911e-14
442.231,6.87757e-14
442.631,1.09811e-13
443.031,1.74665e-13
443.431,2.76765e-13
443.831,4.3688e-13
444.231,6.87004e-13
444.631,1.07622e-12
445.031,1.67954e-12
445.431,2.61112e-12
445.831,4.04397e-12
446.231,6.23929e-12
446.631,9.58978e-12
447.031,1.46834e-11
447.431,2.23972e-11
447.831,3.40334e-11
448.231,5.15184e-11
448.631,7.76902e-11
449.031,1.16712e-10
449.431,1.74668e-10
449.831,2.60408e-10
450.231,3.8676e-10
450.631,5.72237e-10
451.031,8.43444e-10
451.431,1.23846e-09
451.831,1.81157e-09
452.231,2.63981e-09
452.631,3.8321e-09
453.031,5.54176e-09
453.431,7.9837e-09
453.831,1.14579e-08
454.231,1.63816e-08
454.631,2.33319e-08
455.031,3.31048e-08
455.431,4.67927e-08
455.831,6.58887e-08
456.231,9.24251e-08
456.631,1.29156e-07
457.031,1.79798e-07
457.431,2.49346e-07
457.831,3.44482e-07
458.231,4.74106e-07
458.631,6.50027e-07
459.031,8.87836e-07
459.431,1.20804e-06
459.831,1.63747e-06
460.231,2.21112e-06
460.631,2.9744e-06
461.031,3.98594e-06
461.431,5.32119e-06
461.831,7.07673e-06
462.231,9.37567e-06
462.631,1.23742e-05
463.031,1.62697e-05
463.431,2.13103e-05
463.831,2.78063e-05
464.231,3.61446e-05
464.631,4.68047e-05
465.031,6.03785e-05
465.431,7.75927e-05
465.831,9.93357e-05
466.231,0.000126688
466.631,0.000160958
467.031,0.000203721
467.431,0.000256865
467.831,0.000322641
468.231,0.00040372
468.631,0.000503254
469.031,0.000624943
469.431,0.000773106
469.831,0.000952762
470.231,0.0011697
470.631,0.00143058
471.031,0.001743
471.431,0.00211556
471.831,0.00255801
472.231,0.00308122
472.631,0.00369735
473.031,0.00441982
473.431,0.00526338
473.831,0.00624411
474.231,0.00737942
474.631,0.00868801
475.031,0.0101898
475.431,0.0119057
475.831,0.0138577
476.231,0.0160684
476.631,0.018561
477.031,0.0213588
477.431,0.0244848
477.831,0.0279617
478.231,0.0318109
478.631,0.0360524
479.031,0.0407042
479.431,0.0457815
479.831,0.0512964
480.231,0.0572571
480.631,0.0636676
481.031,0.0705267
481.431,0.0778278
481.831,0.0855583
482.231,0.0936991
482.631,0.102224
483.031,0.111102
483.431,0.120291
483.831,0.129745
484.231,0.13941
484.631,0.149225
485.031,0.159125
485.431,0.169036
485.831,0.178882
486.231,0.188583
486.631,0.198053
487.031,0.207209
487.431,0.215963
487.831,0.224232
488.231,0.231933
488.631,0.238986
489.031,0.245318
489.431,0.25086
489.831,0.255552
490.231,0.259343
490.631,0.26219
491.031,0.26406
491.431,0.264932
491.831,0.264802
492.231,0.263688
492.631,0.261604
493.031,0.258573
493.431,0.254629
493.831,0.249814
494.231,0.244181
494.631,0.237788
495.031,0.230704
495.431,0.222999
495.831,0.214752
496.231,0.206043
496.631,0.196952
497.031,0.187564
497.431,0.177961
497.831,0.168222
498.231,0.158427
498.631,0.148647
499.031,0.138954
499.431,0.129411
499.831,0.120076
500.231,0.111
500.631,0.10223
501.031,0.0938033
501.431,0.0857516
501.831,0.0781001
502.231,0.0708673
502.631,0.0640657
503.031,0.0577019
503.431,0.0517773
503.831,0.0462886
504.231,0.0412281
504.631,0.0365845
505.031,0.0323435
505.431,0.028488
505.831,0.0249989
506.231,0.0218557
506.631,0.0190368
507.031,0.01652
507.431,0.0142826
507.831,0.0123025
508.131,0.0109729

File: curve_total_fit.dat
414.631,0.816565
415.031,0.830927
415.431,0.848221
415.831,0.869065
416.231,0.894095
416.631,0.92381
417.031,0.958264
417.431,0.996512
417.831,1.03587
418.231,1.07139
418.631,1.09635
419.031,1.10465
419.431,1.09419
419.831,1.06801
420.231,1.03237
420.631,0.993703
421.031,0.956584
421.431,0.923391
421.831,0.894902
422.231,0.870998
422.631,0.851165
423.031,0.834778
423.431,0.821239
423.831,0.810025
424.231,0.800701
424.631,0.792916
425.031,0.786384
425.431,0.780881
425.831,0.776225
426.231,0.772271
426.631,0.768904
427.031,0.766028
427.431,0.763568
427.831,0.761461
428.231,0.759657
428.631,0.758112
429.031,0.756793
429.431,0.755669
429.831,0.754716
430.231,0.753913
430.631,0.753242
431.031,0.75269
431.431,0.752242
431.831,0.751888
432.231,0.751618
432.631,0.751424
433.031,0.751298
433.431,0.751236
433.831,0.751229
434.231,0.751275
434.631,0.751369
435.031,0.751506
435.431,0.751683
435.831,0.751898
436.231,0.752147
436.631,0.752428
437.031,0.752739
437.431,0.753077
437.831,0.753441
438.231,0.753829
438.631,0.754239
439.031,0.75467
439.431,0.755121
439.831,0.755589
440.231,0.756075
440.631,0.756576
441.031,0.757092
441.431,0.757622
441.831,0.758164
442.231,0.758718
442.631,0.759282
443.031,0.759857
443.431,0.760441
443.831,0.761033
444.231,0.761633
444.631,0.762239
445.031,0.762851
445.431,0.763469
445.831,0.76409
446.231,0.764716
446.631,0.765345
447.031,0.765976
447.431,0.766609
447.831,0.767243
448.231,0.767878
448.631,0.768512
449.031,0.769145
449.431,0.769776
449.831,0.770406
450.231,0.771032
450.631,0.771655
451.031,0.772274
451.431,0.772888
451.831,0.773497
452.231,0.7741
452.631,0.774697
453.031,0.775286
453.431,0.775868
453.831,0.776442
454.231,0.777006
454.631,0.777562
455.031,0.778107
455.431,0.778642
455.831,0.779166
456.231,0.779679
456.631,0.780179
457.031,0.780667
457.431,0.781142
457.831,0.781604
458.231,0.782051
458.631,0.782485
459.031,0.782903
459.431,0.783307
459.831,0.783695
460.231,0.784067
460.631,0.784422
461.031,0.784761
461.431,0.785084
461.831,0.785389
462.231,0.785677
462.631,0.785947
463.031,0.7862
463.431,0.786436
463.831,0.786654
464.231,0.786854
464.631,0.787038
465.031,0.787205
465.431,0.787356
465.831,0.787491
466.231,0.787612
466.631,0.78772
467.031,0.787816
467.431,0.787902
467.831,0.78798
468.231,0.788053
468.631,0.788125
469.031,0.788198
469.431,0.788276
469.831,0.788366
470.231,0.788473
470.631,0.788604
471.031,0.788766
471.431,0.788968
471.831,0.78922
472.231,0.789533
472.631,0.78992
473.031,0.790393
473.431,0.790968
473.831,0.791662
474.231,0.792491
474.631,0.793475
475.031,0.794634
475.431,0.795989
475.831,0.797563
476.231,0.799378
476.631,0.801458
477.031,0.803827
477.431,0.806507
477.831,0.809523
478.231,0.812895
478.631,0.816645
479.031,0.82079
479.431,0.825347
479.831,0.830327
480.231,0.83574
480.631,0.84159
481.031,0.847876
481.431,0.854591
481.831,0.861725
482.231,0.869258
482.631,0.877164
483.031,0.885413
483.431,0.893963
483.831,0.90277
484.231,0.911779
484.631,0.92093
485.031,0.930158
485.431,0.93939
485.831,0.948551
486.231,0.957559
486.631,0.966332
487.031,0.974785
487.431,0.982833
487.831,0.99039
488.231,0.997376
488.631,1.00371
489.031,1.00932
489.431,1.01414
489.831,1.01811
490.231,1.02117
490.631,1.02329
491.031,1.02444
491.431,1.02458
491.831,1.02372
492.231,1.02188
492.631,1.01908
493.031,1.01532
493.431,1.01066
493.831,1.00513
494.231,0.998777
494.631,0.991673
495.031,0.983881
495.431,0.975472
495.831,0.966526
496.231,0.957122
496.631,0.947342
497.031,0.937269
497.431,0.926987
497.831,0.916576
498.231,0.906114
498.631,0.895674
499.031,0.885328
499.431,0.875138
499.831,0.865163
500.231,0.855456
500.631,0.846062
501.031,0.837018
501.431,0.828358
501.831,0.820106
502.231,0.812281
502.631,0.804896
503.031,0.797957
503.431,0.791466
503.831,0.78542
504.231,0.77981
504.631,0.774627
505.031,0.769855
505.431,0.765478
505.831,0.761477
506.231,0.75783
506.631,0.754518
507.031,0.751516
507.431,0.748804
507.831,0.746358
508.131,0.744685