Folder: semiconductor_data/si/sood_1992/film_b

Note: si/sood_1992/film_b/summary.md
## Raman

#### Curve 1 (Disordered Peak)
**Type**: Skewed Gaussian\
**amplitude:** 2.9\
**center** 506.0\
**σ** 8.7
**σ2** 9.1


#### Curve 2 (Ordered Peak)
**Type**:Gaussian\
**amplitude** 0.1\
**center** 482.0\
**σ** 8.1\


## S<sup>2</sup>
**Disordered Curve Integrated Area:** 64.552260\
**Ordered Curve Integrated Area:** 2.646915\
**S<sup>2</sup>:** 0.0394


## Band gap
1.715 eV


Band gap from Fig. 1 and Raman spectrum from Fig. 2 of [1]


[1]A. K. Sood, K. Jayaram, and D. V. S. Muthu, Journal of Applied Physics 72, 4963 (1992).
https://doi.org/10.1063/1.352066

Note: README.md
# semiconductor_data
Data repository for semiconductor data

File: raman_peaks.csv
488.093, -0.94915
488.911, -0.845512
489.704, -0.764418
490.159, -0.698283
491.045, -0.614178
491.916, -0.438592
492.787, -0.365936
493.432, -0.264832
493.702, -0.128036
494.442, -0.169102
495.365, -0.124827
495.879, 0.00335231
496.228, 0.119738
496.576, 0.231122
497.229, 0.342688
498.216, 0.386985
498.666, 0.540079
499.233, 0.611151
499.973, 0.730468
500.496, 0.84064
501.018, 1.00471
501.954, 1.01939
502.368, 1.13287
502.978, 1.21078
503.762, 1.31471
504.546, 1.27343
505.504, 1.30594
506.462, 1.3107
507.42, 1.33957
508.988, 1.15104
509.598, 1.15815
510.556, 1.03649
511.47, 0.910812
512.037, 0.713842
512.69, 0.616441
513.561, 0.478235
513.848, 0.274782
514.171, 0.140038
514.606, 0.0217438
515.042, -0.0923814
515.39, -0.242377
516.043, -0.2179
516.74, -0.379641
517.35, -0.483127
517.916, -0.590037
518.569, -0.709949
519.397, -0.81626
520.311, -0.850889
520.979, -0.983361
521.705, -1.05457
522.46, -1.1354
523.316, -1.22921
524.057, -1.32735
524.753, -1.44765
525.407, -1.56078
526.209, -1.64385
526.235, -1.8411
527.765, -1.74616
529.529, -1.79981
530.941, -1.88058
532.353, -1.94783
533.529, -2.04216