Folder: semiconductor_data/si/sood_1992/film_d

Note: si/sood_1992/film_d/summary.md
## Raman

#### Curve 1 (Disordered Peak)
**Type**: Skewed Gaussian\
**amplitude:** 2.3\
**center** 515.6\
**σ** 3.3
**σ2** 4.0


#### Curve 2 (Ordered Peak)
**Type**:Gaussian\
**amplitude** 0.1\
**center** 506.2\
**σ** 2.2\


## S<sup>2</sup>
**Disordered Curve Integrated Area:** 21.181866\
**Ordered Curve Integrated Area:** 0.702064\
**S<sup>2</sup>:** 0.0321



## Band gap
1.8 eV

Band gap from Fig. 1 and Raman spectrum from Fig. 2 of [1]


[1]A. K. Sood, K. Jayaram, and D. V. S. Muthu, Journal of Applied Physics 72, 4963 (1992).
https://doi.org/10.1063/1.352066

Note: README.md
# semiconductor_data
Data repository for semiconductor data

File: raman_peaks.csv
494.268, 1.62493
495.226, 1.64743
496.184, 1.70131
497.142, 1.747
497.97, 1.82848
498.797, 1.90927
499.537, 2.04019
500.278, 2.09242
501.279, 2.1869
501.802, 2.28894
502.63, 2.41766
503.457, 2.48879
504.345, 2.60982
505.068, 2.74714
505.8, 2.80347
506.81, 2.88611
507.769, 2.96045
508.64, 3.09359
509.249, 3.19544
509.772, 3.32187
510.277, 3.48782
510.73, 3.60198
511.209, 3.74803
511.645, 3.90383
512.124, 4.03567
512.407, 4.17108
512.69, 4.30177
512.908, 4.43855
513.3, 4.56037
513.822, 4.67971
514.562, 4.81108
515.521, 4.90361
516.305, 4.85714
517.073, 4.76116
517.292, 4.46288
517.306, 4.53542
517.568, 4.38624
518.177, 4.26611
518.743, 4.16156
519.179, 3.81966
519.179, 3.99287
519.388, 3.70116
519.614, 3.56296
519.838, 3.44724
520.268, 3.33174
520.66, 3.17925
520.877, 2.98533
521.487, 2.87471
521.748, 2.7397
522.315, 2.61024
522.837, 2.51517
523.098, 2.37415
523.578, 2.22569
524.1, 2.11742
524.623, 2.01582
525.102, 1.89237
525.537, 1.77241
526.234, 1.65305
527.149, 1.56917
528.063, 1.45245