Folder: semiconductor_data/si/sood_1992/film_c

Note: si/sood_1992/film_c/summary.md
## Raman

#### Curve 1 (Disordered Peak)
**Type**: Skewed Gaussian\
**amplitude:** 1.2\
**center** 512.6\
**σ** 4.8
**σ2** 4.3


#### Curve 2 (Ordered Peak)
**Type**:Gaussian\
**amplitude** 0.3\
**center** 522.0\
**σ** 1.6\


## S<sup>2</sup>
**Disordered Curve Integrated Area:** 14.211994\
**Ordered Curve Integrated Area:** 1.381898\
**S<sup>2</sup>:** 0.0886


## Band gap
1.877 eV

Band gap from Fig. 1 and Raman spectrum from Fig. 2 of [1]


[1]A. K. Sood, K. Jayaram, and D. V. S. Muthu, Journal of Applied Physics 72, 4963 (1992).
https://doi.org/10.1063/1.352066

Note: README.md
# semiconductor_data
Data repository for semiconductor data

File: raman_peaks.csv
497.839, 1.26965
498.797, 1.29988
499.722, 1.33925
500.738, 1.36048
501.671, 1.3742
502.63, 1.45582
503.662, 1.52479
504.415, 1.60107
505.199, 1.70729
506.114, 1.80996
506.898, 1.94429
507.681, 2.05771
508.465, 2.18763
509.119, 2.27934
509.946, 2.39566
510.839, 2.52484
511.737, 2.5568
512.598, 2.55922
513.176, 2.56137
514.04, 2.53842
514.737, 2.45774
515.521, 2.33961
516.305, 2.24799
516.827, 2.11862
517.437, 2.01003
518.134, 1.89108
518.918, 1.82831
519.876, 1.80806
520.834, 1.81555
521.792, 1.82441
522.75, 1.74367
523.49, 1.64872
523.97, 1.52793
524.492, 1.41371
525.276, 1.34586
526.234, 1.27119
527.192, 1.20668
528.15, 1.17734
529.109, 1.14617
530.067, 1.11683
531.057, 1.09619
531.983, 1.07178